aX,aY,aZ,gX,gY,gZ
-2.477,0.358,-1.438,20.691,703.735,-109.070
-2.450,0.225,-2.850,-47.791,731.873,-133.484
-2.204,-0.168,-3.976,-130.249,690.918,-162.354
-1.774,-0.795,-4.000,-201.233,588.135,-183.411
-1.397,-1.435,-4.000,-216.003,459.290,-189.941
-1.127,-1.679,-4.000,-180.603,309.326,-176.392
-1.026,-1.726,-3.218,-125.305,178.772,-160.706
-0.878,-1.507,-2.663,-74.646,127.686,-89.478
-0.702,-0.767,-2.816,-38.574,126.892,2.136
-0.624,-0.353,-2.682,-10.498,98.816,20.081
-0.490,-0.093,-2.353,20.081,62.134,21.179
-0.381,-0.015,-2.081,32.349,38.147,13.611
-0.318,-0.057,-1.765,30.945,23.437,3.601
-0.275,-0.151,-1.572,23.926,19.653,-3.418
-0.239,-0.203,-1.552,16.785,25.574,-4.517
-0.210,-0.221,-1.579,13.123,25.879,-2.625
-0.192,-0.223,-1.558,10.681,19.104,-0.671
-0.184,-0.227,-1.547,8.667,11.047,1.343
-0.161,-0.220,-1.526,6.714,2.502,3.052
-0.159,-0.230,-1.482,1.953,-6.714,3.479
-0.152,-0.233,-1.406,-1.038,-15.564,3.784
-0.130,-0.217,-1.325,-5.066,-22.949,3.967
-0.128,-0.223,-1.232,-8.972,-27.405,2.563
-0.123,-0.255,-1.106,-8.972,-29.175,1.221
-0.103,-0.244,-1.037,-5.676,-25.635,2.197
-0.092,-0.255,-1.011,-3.174,-19.043,2.502
-0.067,-0.272,-0.969,-0.671,-15.869,3.052
-0.050,-0.215,-1.015,1.404,-11.475,4.639
-0.051,-0.209,-1.050,0.977,-10.010,4.211
-0.047,-0.213,-1.028,0.244,-13.306,3.662
-0.061,-0.185,-0.986,-0.427,-16.541,4.517
-0.059,-0.142,-0.951,-1.282,-16.724,4.883
-0.052,-0.167,-0.934,0.854,-14.709,3.235
-0.056,-0.153,-0.943,4.456,-12.695,3.357
-0.055,-0.133,-0.949,7.019,-12.146,4.211
-0.056,-0.157,-0.916,8.423,-13.489,2.747
-0.051,-0.164,-0.909,8.789,-13.855,2.136
-0.046,-0.147,-0.906,6.409,-13.550,2.441
-0.041,-0.155,-0.906,5.615,-13.123,1.587
-0.034,-0.151,-0.930,5.249,-12.207,1.770
-0.040,-0.102,-0.902,5.676,-12.695,2.625
-0.039,-0.096,-0.881,5.493,-11.353,0.671
-0.024,-0.141,-0.948,4.028,-6.592,-2.319
-0.031,-0.195,-0.968,3.967,-5.676,-3.967
-0.025,-0.204,-0.939,5.310,-7.202,-3.296
-0.021,-0.225,-0.923,5.432,-6.775,-2.808
-0.016,-0.225,-0.981,4.028,-4.395,-1.770
-0.006,-0.203,-1.006,3.174,-3.845,0.183
0.002,-0.215,-1.015,4.028,-5.859,0.610
-0.001,-0.199,-1.015,4.333,-7.568,1.465
-0.016,-0.161,-0.986,3.906,-9.033,1.404
-0.020,-0.208,-0.962,7.019,-7.690,0.305
-0.007,-0.201,-1.005,6.836,-3.784,0.305
-0.016,-0.202,-0.986,7.080,-3.662,0.610
-0.016,-0.193,-1.006,7.141,-3.052,0.671
-0.018,-0.186,-1.029,7.446,-2.563,1.282
-0.020,-0.172,-1.032,6.592,-3.723,1.587
-0.021,-0.160,-1.024,5.493,-5.371,1.648
-0.020,-0.175,-1.027,3.357,-6.287,0.854
-0.024,-0.188,-1.024,2.380,-6.775,0.549
-0.026,-0.150,-1.022,4.822,-7.446,1.038
-0.027,-0.170,-0.998,6.897,-7.507,1.099
-0.020,-0.132,-1.007,3.723,-6.409,0.854
-0.024,-0.160,-0.995,1.648,-6.348,-0.977
-0.018,-0.166,-1.006,0.671,-5.920,-1.709
-0.009,-0.162,-1.013,0.854,-5.798,-1.099
-0.010,-0.196,-1.002,1.526,-6.592,-1.343
0.001,-0.200,-1.015,2.991,-6.836,-0.488
-0.009,-0.198,-1.041,4.700,-7.324,0.549
0.001,-0.189,-1.025,4.700,-9.949,1.099
0.000,-0.196,-0.999,4.089,-12.695,1.404
0.002,-0.177,-0.979,2.319,-12.817,2.136
0.007,-0.140,-0.993,1.831,-11.475,1.892
0.011,-0.217,-0.969,3.052,-10.986,-0.671
0.015,-0.184,-0.985,0.916,-9.399,0.122
0.017,-0.153,-0.996,2.991,-8.423,1.648
0.020,-0.165,-0.990,6.104,-8.606,-0.122
0.017,-0.174,-0.982,7.080,-7.568,-0.671
0.022,-0.189,-0.998,5.981,-5.981,-0.549
0.025,-0.207,-1.015,5.615,-5.188,0.000
0.023,-0.216,-1.017,5.310,-5.920,0.732
0.028,-0.190,-1.011,5.737,-6.531,2.686
0.031,-0.179,-1.006,5.615,-6.470,2.991
0.032,-0.161,-1.021,5.371,-5.859,2.686
0.026,-0.168,-1.000,4.150,-6.348,2.136
0.028,-0.158,-0.997,2.808,-6.775,1.343
0.027,-0.176,-1.019,1.648,-5.859,0.488
0.026,-0.191,-1.031,1.465,-6.348,-0.183
0.028,-0.196,-1.028,3.784,-6.836,0.793
0.030,-0.176,-1.019,5.554,-7.996,2.014
0.020,-0.152,-0.978,6.897,-8.362,2.930
0.029,-0.139,-0.971,6.592,-6.470,2.502
0.034,-0.168,-0.995,3.418,-4.517,0.061
0.036,-0.175,-1.023,2.075,-3.723,-0.549
0.036,-0.214,-1.012,5.005,-4.761,0.183
0.039,-0.187,-1.042,3.906,-5.432,2.075
0.039,-0.162,-1.029,4.944,-6.653,4.028
0.031,-0.156,-1.003,4.761,-8.545,3.235
0.033,-0.158,-1.014,3.296,-8.057,2.991
0.030,-0.180,-1.020,2.319,-8.545,2.258
0.035,-0.190,-1.035,3.113,-8.972,2.808
0.038,-0.190,-1.036,5.798,-10.193,4.395
0.044,-0.175,-1.033,7.385,-11.780,6.348
0.044,-0.131,-1.040,8.728,-13.062,6.897
0.050,-0.168,-1.006,9.033,-16.418,5.249
0.051,-0.155,-0.990,6.226,-17.212,5.554
0.048,-0.141,-0.991,5.554,-15.442,7.019
0.057,-0.136,-1.020,5.981,-12.878,7.507
0.060,-0.135,-1.049,7.080,-13.123,6.958
0.059,-0.135,-1.050,8.362,-14.954,7.019
0.058,-0.118,-1.020,9.399,-18.005,7.141
0.062,-0.120,-1.012,9.888,-19.043,6.226
0.065,-0.138,-1.028,8.972,-18.982,5.310
0.074,-0.122,-1.056,8.423,-20.203,4.883
0.071,-0.125,-1.037,12.451,-23.804,3.967
0.082,-0.152,-1.011,8.484,-27.649,1.892
0.087,-0.113,-1.020,7.935,-27.100,3.601
0.088,-0.113,-1.006,7.996,-27.893,3.723
0.103,-0.132,-1.021,9.338,-27.466,3.235
-1.151,0.002,-2.127,86.792,602.539,-67.383
-1.000,-0.069,-2.547,42.236,560.303,-69.763
-0.872,-0.055,-2.704,-15.503,499.756,-72.998
-0.842,-0.140,-2.842,-56.885,451.233,-79.041
-0.764,-0.290,-2.967,-82.214,406.067,-83.923
-0.776,-0.368,-2.972,-75.073,361.328,-85.022
-0.741,-0.420,-2.788,-45.532,307.007,-82.947
-0.635,-0.394,-2.698,-19.165,266.479,-76.477
-0.491,-0.445,-2.658,-4.211,233.154,-70.313
-0.360,-0.498,-2.705,-3.784,201.782,-61.890
-0.300,-0.614,-2.561,-7.935,159.241,-51.147
-0.244,-0.639,-2.313,-7.080,114.380,-33.997
-0.215,-0.531,-2.104,-10.437,79.651,-14.099
-0.268,-0.461,-1.831,-13.184,52.917,1.038
-0.238,-0.273,-1.671,-10.864,36.743,15.625
-0.231,-0.153,-1.627,-7.141,31.494,24.109
-0.226,-0.061,-1.582,-5.554,25.818,25.452
-0.217,-0.032,-1.480,-1.892,18.127,23.682
-0.203,-0.055,-1.403,0.488,12.573,19.836
-0.191,-0.052,-1.362,1.648,10.071,18.250
-0.183,-0.032,-1.355,3.418,8.118,17.456
-0.171,0.004,-1.359,4.456,4.578,15.808
-0.145,0.041,-1.333,2.258,-1.587,12.695
-0.098,0.017,-1.282,-2.319,-8.850,6.592
-0.112,-0.063,-1.170,-7.507,-18.005,0.000
-0.093,-0.122,-0.986,-10.437,-25.330,-2.686
-0.045,-0.104,-1.086,-10.559,-15.503,-0.061
-0.038,-0.110,-1.121,-12.146,-11.414,-0.916
-0.028,-0.122,-1.121,-14.038,-13.611,-1.953
-0.020,-0.145,-1.119,-11.963,-14.587,-2.869
-0.021,-0.167,-1.077,-9.705,-14.709,-2.991
-0.013,-0.205,-1.032,-6.897,-13.245,-2.930
-0.011,-0.189,-1.034,-4.700,-9.949,-1.343
-0.012,-0.161,-1.033,-2.930,-7.141,0.366
-0.010,-0.141,-1.051,-1.709,-5.615,0.244
-0.016,-0.143,-1.020,-1.465,-6.653,-1.038
-0.010,-0.149,-0.998,-1.831,-7.263,-1.831
-0.004,-0.151,-1.009,-1.038,-6.287,-1.770
0.002,-0.135,-1.011,0.366,-6.165,-1.282
0.007,-0.142,-0.994,1.343,-7.019,-1.465
0.010,-0.142,-0.999,0.977,-7.568,-1.892
0.011,-0.148,-0.981,1.770,-8.789,-1.831
0.011,-0.156,-0.950,2.625,-10.620,-2.014
0.010,-0.144,-0.943,2.563,-10.620,-1.282
0.009,-0.143,-0.929,-0.061,-10.132,-0.977
0.001,-0.139,-0.941,-2.869,-7.935,-0.610
0.001,-0.128,-0.956,-4.517,-5.737,-0.427
-0.004,-0.129,-0.961,-4.211,-3.906,-0.916
0.001,-0.133,-0.969,-2.930,-2.258,-1.160
-0.001,-0.128,-0.998,-1.526,0.000,-1.221
-0.004,-0.126,-0.989,0.061,0.061,-1.404
-0.003,-0.137,-0.963,0.854,-0.549,-2.258
-0.003,-0.131,-0.975,0.366,0.793,-2.258
0.002,-0.129,-1.006,-1.221,2.136,-2.686
0.002,-0.150,-1.026,-2.075,1.831,-3.418
0.001,-0.148,-1.035,-2.686,0.732,-3.540
-0.005,-0.156,-1.014,-2.441,-0.671,-3.296
0.004,-0.141,-1.024,-3.296,-0.793,-3.113
0.009,-0.160,-1.031,-4.517,-0.610,-3.540
0.006,-0.170,-0.995,-3.540,-2.014,-3.418
0.003,-0.137,-1.002,-1.892,-0.549,-2.563
0.011,-0.154,-1.009,-1.221,0.671,-3.052
0.005,-0.188,-1.009,-0.549,0.427,-3.723
0.014,-0.182,-1.027,-0.610,0.305,-3.113
0.014,-0.190,-1.036,-0.732,-0.366,-2.563
0.018,-0.192,-1.025,-0.671,-1.465,-2.136
0.022,-0.175,-1.012,-0.366,-2.014,-0.977
0.012,-0.165,-1.007,-0.793,-1.648,-0.549
0.007,-0.159,-1.001,-0.183,-1.404,-0.549
0.009,-0.153,-1.006,0.061,-1.343,0.000
0.010,-0.159,-1.011,-0.366,-1.892,-0.427
0.006,-0.165,-1.000,-1.221,-2.686,-0.610
0.001,-0.162,-1.014,-1.953,-2.319,-0.244
0.002,-0.159,-1.028,-1.526,-2.625,-0.122
0.001,-0.150,-1.011,-0.671,-4.028,-0.366
-0.000,-0.162,-0.999,-1.282,-4.395,-0.671
-0.003,-0.164,-1.001,-0.305,-4.089,-1.038
-0.004,-0.146,-1.000,0.366,-3.113,-0.122
-0.004,-0.145,-1.015,-0.427,-0.916,-0.244
-0.007,-0.137,-1.032,-0.610,0.427,-0.732
-0.004,-0.134,-1.041,-0.427,0.183,-1.282
-0.008,-0.150,-1.027,-0.610,-0.916,-2.441
-0.004,-0.166,-1.017,-0.488,-1.221,-2.808
-0.001,-0.159,-1.019,-0.732,-1.526,-2.563
0.003,-0.164,-1.030,-0.549,-1.587,-2.075
0.001,-0.148,-1.031,0.183,-2.014,-1.587
0.004,-0.152,-1.033,-0.122,-2.563,-1.343
0.001,-0.162,-1.028,-0.305,-3.113,-1.587
-0.001,-0.154,-1.023,0.671,-3.784,-1.038
-0.003,-0.151,-1.016,1.282,-4.517,-1.038
-0.003,-0.159,-0.999,1.465,-5.249,-1.282
0.002,-0.152,-1.004,2.197,-4.578,-1.160
0.007,-0.149,-1.015,2.258,-3.479,-1.343
0.009,-0.148,-1.011,2.380,-3.357,-1.648
0.009,-0.148,-1.010,2.014,-3.540,-1.831
0.013,-0.153,-0.999,1.404,-3.906,-2.014
0.017,-0.160,-0.999,0.916,-4.089,-2.136
0.020,-0.167,-0.998,0.366,-3.906,-1.648
0.022,-0.162,-0.990,0.183,-4.150,-0.916
0.023,-0.164,-0.993,-1.038,-3.845,-0.549
0.024,-0.161,-1.004,-1.404,-3.479,-0.244
0.021,-0.148,-0.996,-0.366,-3.357,0.610
0.018,-0.145,-0.998,-0.183,-3.174,0.671
0.023,-0.143,-0.998,0.488,-2.686,0.671
0.021,-0.145,-0.988,0.793,-2.441,0.305
0.024,-0.158,-0.985,1.099,-1.587,0.122
0.021,-0.147,-0.993,2.136,-0.610,0.427
0.026,-0.148,-0.996,1.587,-0.244,0.488
0.030,-0.158,-1.010,0.610,-0.244,0.000
0.029,-0.148,-1.016,-0.244,-0.916,0.244
0.024,-0.145,-1.000,-0.244,-2.441,0.305
0.022,-0.151,-0.990,0.244,-2.991,0.122
0.023,-0.145,-0.985,1.221,-2.197,0.427
0.025,-0.148,-0.981,1.892,-2.014,0.305
0.025,-0.148,-0.996,1.587,-1.099,0.122
0.026,-0.147,-0.998,1.648,-0.732,0.122
0.023,-0.140,-1.012,1.404,-0.366,0.488
0.027,-0.153,-1.004,1.282,-0.549,0.244
0.027,-0.166,-0.987,1.404,-0.977,0.305
-1.864,-0.733,-1.386,114.624,632.935,-211.670
-1.963,-0.898,-1.971,126.709,643.799,-188.232
-1.821,-1.001,-3.059,81.909,633.850,-159.729
-1.488,-1.036,-4.000,-22.156,573.059,-129.639
-1.202,-1.183,-4.000,-150.818,417.847,-103.638
-1.018,-1.202,-3.990,-251.404,238.037,-74.463
-1.007,-1.138,-3.264,-292.297,114.136,-46.692
-0.976,-1.083,-2.516,-275.391,59.326,-30.518
-0.931,-0.994,-2.226,-211.731,69.153,-28.687
-0.856,-0.736,-2.338,-123.047,101.868,-25.818
-0.733,-0.538,-2.418,-46.875,110.046,-28.381
-0.481,-0.400,-2.419,-9.705,94.727,-37.537
-0.428,-0.637,-2.209,-3.479,64.758,-53.955
-0.291,-0.630,-1.901,-3.845,35.889,-53.223
-0.222,-0.800,-1.659,-3.479,20.081,-49.805
-0.155,-0.811,-1.553,4.883,18.616,-42.603
-0.119,-0.729,-1.523,15.686,19.592,-31.067
-0.097,-0.687,-1.549,20.386,16.785,-23.132
-0.086,-0.671,-1.462,22.034,5.249,-16.113
-0.075,-0.622,-1.319,23.621,-8.362,-8.423
-0.086,-0.597,-1.158,25.452,-18.127,-2.441
-0.068,-0.538,-1.014,24.475,-23.804,2.441
-0.079,-0.447,-0.947,22.278,-21.790,6.226
-0.083,-0.363,-0.930,20.081,-16.479,6.592
-0.070,-0.348,-0.925,17.761,-14.160,2.991
-0.071,-0.320,-0.892,18.005,-14.648,-0.244
-0.073,-0.303,-0.895,18.982,-12.756,-2.869
-0.085,-0.332,-0.880,18.921,-10.681,-7.263
-0.078,-0.361,-0.860,15.564,-10.071,-10.986
-0.072,-0.423,-0.879,10.620,-7.690,-12.634
-0.047,-0.477,-0.914,6.042,-4.944,-11.414
-0.047,-0.506,-0.930,2.136,-4.761,-8.118
-0.048,-0.497,-0.957,-0.366,-5.005,-3.601
-0.056,-0.486,-0.962,-2.686,-7.385,-0.061
-0.067,-0.468,-0.958,-3.479,-9.644,3.113
-0.080,-0.451,-0.952,-1.587,-10.437,5.310
-0.091,-0.424,-0.960,4.395,-8.789,6.653
-0.097,-0.407,-0.948,10.925,-8.667,7.263
-0.103,-0.376,-0.915,14.526,-9.094,8.240
-0.098,-0.362,-0.927,15.076,-7.446,8.057
-0.112,-0.324,-0.948,15.259,-4.944,7.568
-0.125,-0.303,-0.944,16.296,-4.456,7.080
-0.122,-0.291,-0.914,17.090,-5.066,5.798
-0.116,-0.291,-0.939,15.808,-2.625,4.211
-0.110,-0.306,-0.964,12.390,-1.648,2.319
-0.107,-0.302,-0.946,7.812,-2.991,1.587
-0.099,-0.316,-0.976,3.296,-3.296,0.366
-0.079,-0.356,-0.966,1.770,-4.944,-0.488
-0.076,-0.346,-0.967,3.418,-6.592,0.549
-0.075,-0.327,-0.951,4.517,-7.141,1.648
-0.066,-0.346,-0.945,4.761,-7.019,0.610
-0.062,-0.344,-0.945,5.188,-6.165,0.183
-0.065,-0.338,-0.934,5.310,-5.371,0.427
-0.065,-0.346,-0.937,5.249,-3.845,0.244
-0.058,-0.347,-0.944,5.432,-3.052,0.610
-0.055,-0.333,-0.949,5.676,-2.747,1.221
-0.059,-0.320,-0.961,5.981,-2.502,1.770
-0.053,-0.329,-0.952,6.226,-3.418,1.526
-0.049,-0.318,-0.947,6.104,-4.456,2.014
-0.052,-0.299,-0.941,6.348,-5.005,2.380
-0.059,-0.286,-0.943,5.249,-5.554,1.343
-0.060,-0.294,-0.938,3.296,-5.981,-0.366
-0.070,-0.314,-0.915,2.319,-5.676,-1.099
-0.062,-0.317,-0.916,2.075,-3.784,-0.916
-0.066,-0.320,-0.951,2.319,-0.977,-1.343
-0.064,-0.318,-0.993,2.258,0.671,-2.136
-0.060,-0.339,-0.991,3.357,-0.366,-2.563
-0.057,-0.345,-0.976,4.700,-1.648,-2.075
-0.056,-0.328,-0.988,4.517,-1.282,-1.160
-0.050,-0.342,-0.974,3.296,-1.892,-1.343
-0.049,-0.339,-0.956,3.235,-2.930,-0.793
-0.050,-0.317,-0.953,1.953,-2.808,0.244
-0.051,-0.331,-0.934,0.671,-2.502,-0.061
-0.047,-0.328,-0.952,-0.488,-0.916,-0.183
-0.051,-0.334,-0.976,-0.183,0.916,-0.366
-0.052,-0.343,-0.970,1.587,0.183,-0.549
-0.052,-0.341,-0.976,2.808,-0.427,-0.183
-0.052,-0.344,-0.996,2.502,-0.610,0.000
-0.056,-0.345,-0.990,2.808,-1.831,0.366
-0.059,-0.321,-0.968,4.089,-3.723,1.404
-0.060,-0.315,-0.969,4.395,-3.845,1.526
-0.065,-0.311,-0.983,4.944,-3.723,1.038
-0.059,-0.301,-0.987,5.005,-4.456,0.549
-0.055,-0.310,-0.956,4.272,-6.104,-0.244
-0.057,-0.309,-0.964,2.380,-6.104,-0.793
-0.052,-0.322,-0.973,1.160,-5.554,-1.526
-0.053,-0.326,-0.956,2.136,-5.981,-1.770
-0.051,-0.327,-0.951,3.418,-5.920,-1.099
-0.052,-0.336,-0.970,4.150,-4.883,-0.610
-0.048,-0.340,-0.990,2.747,-4.578,-0.305
-0.056,-0.340,-1.006,2.380,-4.639,-0.183
-0.060,-0.339,-0.991,3.174,-6.104,0.366
-0.056,-0.343,-0.982,5.249,-6.714,0.732
-0.051,-0.333,-0.998,5.981,-6.897,1.160
-0.045,-0.333,-1.011,5.249,-7.874,1.160
-0.043,-0.343,-1.022,4.517,-10.132,1.038
-0.036,-0.346,-1.006,4.578,-12.756,1.526
-0.042,-0.331,-0.975,5.127,-14.832,2.563
-0.048,-0.323,-0.969,5.188,-14.038,3.235
-0.041,-0.331,-0.984,4.578,-12.573,3.235
-0.028,-0.350,-1.010,5.676,-12.329,3.357
-0.023,-0.361,-1.035,6.592,-13.062,4.517
-0.021,-0.350,-1.010,7.324,-15.381,6.104
-0.021,-0.331,-0.999,7.568,-17.090,7.629
-0.021,-0.312,-1.013,7.019,-17.700,8.301
-0.019,-0.314,-1.002,6.104,-19.470,8.362
-0.018,-0.304,-0.996,6.592,-20.569,8.545
-0.014,-0.299,-0.987,7.568,-20.935,8.179
-0.017,-0.307,-0.970,7.446,-20.874,7.690
-0.010,-0.289,-0.965,7.996,-20.264,7.812
-0.013,-0.276,-0.975,8.545,-18.982,7.996
0.001,-0.288,-0.957,8.301,-18.616,6.653
0.007,-0.280,-0.988,8.057,-17.151,6.409
0.008,-0.281,-1.000,7.690,-15.991,5.615
0.002,-0.287,-1.003,6.470,-16.479,4.639
0.004,-0.286,-1.020,6.165,-16.296,4.944
0.007,-0.282,-1.032,5.920,-16.174,5.310
0.011,-0.302,-1.032,4.944,-17.334,4.517
0.013,-0.301,-1.015,5.554,-19.104,4.944
-2.786,-0.643,-1.046,112.122,713.379,-260.559
-2.912,-0.844,-2.696,99.609,764.526,-240.601
-2.680,-0.929,-4.000,12.451,736.267,-202.942
-2.161,-1.281,-4.000,-140.503,584.229,-170.593
-1.708,-1.890,-4.000,-290.527,358.643,-143.372
-1.472,-2.515,-4.000,-368.835,162.964,-109.253
-1.512,-2.764,-2.936,-341.797,53.894,-61.340
-1.464,-2.008,-2.393,-209.229,52.551,4.028
-1.264,-0.850,-2.775,-54.016,101.501,54.504
-0.938,-0.266,-2.911,35.400,104.858,48.828
-0.640,-0.164,-2.603,60.303,65.002,20.691
-0.427,-0.319,-2.020,46.448,15.747,-2.808
-0.340,-0.490,-1.542,28.259,-11.475,-17.151
-0.285,-0.500,-1.432,24.109,-2.930,-20.020
-0.239,-0.427,-1.585,33.997,12.634,-18.066
-0.193,-0.376,-1.599,43.945,8.118,-17.395
-0.142,-0.447,-1.373,42.664,-11.475,-18.982
-0.111,-0.579,-1.113,32.288,-28.503,-17.944
-0.087,-0.600,-0.910,18.005,-37.231,-9.399
-0.083,-0.564,-0.831,8.118,-35.645,0.061
-0.097,-0.489,-0.781,5.432,-32.227,7.324
-0.106,-0.382,-0.760,4.395,-30.518,11.414
-0.115,-0.336,-0.752,2.136,-27.771,9.216
-0.106,-0.336,-0.725,1.038,-25.879,4.761
-0.100,-0.343,-0.715,1.648,-22.461,0.610
-0.093,-0.368,-0.742,5.493,-14.587,-2.319
-0.082,-0.373,-0.791,10.803,-7.507,-3.052
-0.072,-0.385,-0.763,11.902,-6.592,-3.113
-0.059,-0.414,-0.719,7.141,-6.958,-3.174
-0.044,-0.419,-0.737,-0.732,-4.944,-2.075
-0.054,-0.444,-0.784,-9.583,-2.075,0.000
-0.068,-0.441,-0.838,-12.634,0.305,2.625
-0.087,-0.417,-0.853,-9.521,0.366,5.188
-0.106,-0.388,-0.864,-3.296,0.732,6.531
-0.116,-0.392,-0.848,3.601,1.099,6.104
-0.129,-0.370,-0.902,9.705,3.601,5.493
-0.132,-0.357,-0.942,14.526,4.639,4.517
-0.131,-0.370,-0.958,17.395,2.502,2.563
-0.124,-0.389,-0.958,19.165,0.183,1.587
-0.120,-0.400,-0.952,19.653,-1.221,2.258
-0.122,-0.383,-0.932,19.287,-2.625,4.272
-0.121,-0.355,-0.919,16.846,-2.502,6.165
-0.117,-0.347,-0.936,13.489,-0.244,6.775
-0.122,-0.335,-0.990,10.376,1.526,6.531
-0.115,-0.330,-0.997,7.751,-0.061,5.737
-0.110,-0.320,-1.004,5.615,-1.221,4.456
-0.115,-0.310,-1.026,4.578,-0.671,2.686
-0.116,-0.326,-1.043,4.089,-0.977,0.366
-0.108,-0.345,-1.010,5.371,-3.723,-2.197
-0.103,-0.365,-0.972,5.127,-5.432,-3.601
-0.092,-0.416,-0.980,3.967,-3.357,-4.211
-0.082,-0.427,-1.037,4.700,-1.465,-2.991
-0.088,-0.405,-1.014,3.479,-4.028,-0.610
-0.089,-0.394,-1.019,1.404,-5.493,0.732
-0.084,-0.403,-1.030,-0.061,-4.822,1.221
-0.091,-0.387,-1.020,-0.610,-5.371,2.686
-0.098,-0.365,-0.981,1.343,-5.859,3.235
-0.091,-0.357,-0.948,3.479,-5.310,2.319
-0.097,-0.342,-0.972,4.578,-2.502,1.343
-0.095,-0.342,-1.002,5.432,-0.977,0.122
-0.093,-0.354,-0.989,5.554,-2.319,-1.221
-0.094,-0.366,-0.959,3.967,-3.479,-1.526
-0.097,-0.377,-0.970,2.808,-2.747,-1.465
-0.092,-0.378,-0.961,1.526,-3.357,-0.610
-0.088,-0.383,-0.951,-0.793,-4.395,-0.122
-0.091,-0.373,-0.972,-1.648,-3.967,0.305
-0.087,-0.370,-0.948,-0.366,-4.761,0.427
-0.084,-0.363,-0.921,1.099,-6.226,0.122
-0.084,-0.350,-0.912,2.747,-5.249,0.671
-0.079,-0.356,-0.913,2.991,-4.272,0.427
-0.085,-0.342,-0.927,2.380,-4.089,0.427
-0.084,-0.348,-0.920,1.770,-4.578,0.244
-0.079,-0.360,-0.914,0.671,-4.578,-0.366
-0.078,-0.369,-0.901,-0.488,-4.578,-0.549
-0.079,-0.348,-0.902,-0.488,-3.662,0.427
-0.084,-0.337,-0.926,-0.977,-2.258,0.671
-0.084,-0.331,-0.925,-1.099,-1.770,-0.122
-0.080,-0.344,-0.916,-1.160,-1.343,-1.343
-0.084,-0.352,-0.950,-1.648,-0.122,-2.380
-0.082,-0.364,-0.973,-2.014,-0.183,-2.930
-0.073,-0.395,-0.963,-1.892,-1.892,-3.174
-0.081,-0.390,-0.963,-1.770,-2.563,-2.686
-0.086,-0.370,-0.958,-0.488,-2.747,-2.258
-0.090,-0.367,-0.935,-0.671,-2.258,-2.136
-0.080,-0.365,-0.969,-0.916,-0.061,-2.075
-0.081,-0.378,-0.997,-1.038,0.793,-2.563
-0.084,-0.370,-0.994,-0.671,-0.916,-2.319
-0.072,-0.384,-0.950,-0.732,-2.502,-2.502
-0.072,-0.391,-0.971,-0.977,-1.831,-2.869
-0.068,-0.398,-0.970,0.000,-1.587,-2.625
-0.065,-0.407,-0.932,1.892,-2.747,-1.648
-0.063,-0.386,-0.948,2.502,-1.282,-0.061
-0.068,-0.365,-0.978,2.625,-0.061,0.977
-0.067,-0.363,-0.966,2.380,-1.770,0.732
-0.066,-0.374,-0.952,1.099,-3.235,0.427
-0.069,-0.380,-0.967,0.061,-3.296,0.427
-0.072,-0.373,-0.953,-0.671,-4.578,0.854
-0.085,-0.374,-0.929,-1.038,-5.127,1.038
-0.083,-0.366,-0.941,-0.732,-2.991,1.160
-0.082,-0.367,-0.976,0.305,-0.854,0.549
-0.078,-0.369,-0.968,2.319,-1.160,0.488
-0.071,-0.365,-0.952,3.296,-2.136,0.488
-0.075,-0.366,-0.964,2.136,-1.648,0.610
-0.078,-0.363,-0.965,0.977,-2.197,0.916
-0.078,-0.343,-0.963,0.977,-3.052,1.465
-0.077,-0.339,-0.972,0.366,-3.113,0.549
-0.073,-0.355,-0.975,-0.610,-3.479,-0.427
-0.073,-0.373,-0.975,-0.122,-4.700,-0.793
-0.074,-0.368,-0.987,1.404,-4.639,0.183
-0.075,-0.376,-0.976,2.075,-5.676,0.610
-0.074,-0.371,-0.987,3.479,-6.104,1.343
-0.078,-0.349,-0.991,4.639,-6.531,2.380
-0.082,-0.338,-0.981,4.150,-7.874,2.075
-0.074,-0.338,-0.979,3.601,-8.789,1.709
-0.082,-0.365,-1.003,1.648,-8.728,0.122
-0.065,-0.303,-0.991,2.136,-10.498,-0.305
-0.089,-0.352,-0.964,3.052,-11.780,-1.404
-0.071,-0.333,-0.961,4.028,-10.254,0.793
-0.075,-0.347,-0.981,3.540,-8.484,0.244
-0.990,-0.119,-2.049,-0.916,430.359,-57.312
-0.987,-0.105,-2.283,-29.724,394.653,-53.833
-0.899,-0.096,-2.370,-61.340,348.206,-53.894
-0.865,-0.235,-2.318,-74.646,301.941,-59.570
-0.828,-0.312,-2.280,-65.918,264.343,-62.561
-0.778,-0.354,-2.276,-53.894,235.596,-60.364
-0.739,-0.331,-2.152,-35.278,204.529,-58.228
-0.709,-0.362,-1.926,-17.395,174.133,-58.716
-0.643,-0.381,-1.762,-5.127,153.870,-58.838
-0.566,-0.421,-1.713,-4.822,142.578,-58.228
-0.517,-0.367,-1.753,-11.658,133.545,-55.542
-0.492,-0.535,-1.738,-19.043,121.460,-56.213
-0.472,-0.674,-1.655,-10.925,104.126,-46.997
-0.467,-0.521,-1.591,13.611,89.233,-19.836
-0.459,-0.155,-1.561,31.128,79.041,4.883
-0.442,0.008,-1.549,41.138,70.984,8.606
-0.420,0.036,-1.554,43.945,61.340,2.686
-0.388,0.083,-1.516,38.391,49.194,-0.854
-0.359,0.071,-1.407,26.794,35.889,-4.517
-0.349,0.006,-1.291,14.465,26.184,-8.667
-0.342,-0.036,-1.205,5.798,20.874,-8.728
-0.329,-0.038,-1.120,1.587,18.066,-6.836
-0.319,-0.026,-1.107,1.221,18.494,-6.226
-0.299,-0.015,-1.149,-1.587,20.203,-6.897
-0.281,-0.035,-1.173,-3.662,18.799,-9.155
-0.265,-0.082,-1.161,-6.470,14.343,-11.230
-0.261,-0.117,-1.114,-9.827,9.583,-11.475
-0.253,-0.153,-1.068,-11.353,6.531,-11.047
-0.245,-0.195,-1.034,-10.071,4.761,-10.498
-0.248,-0.182,-1.024,-8.423,4.944,-7.935
-0.247,-0.171,-1.037,-7.751,5.981,-6.165
-0.244,-0.162,-1.030,-6.409,4.944,-5.615
-0.241,-0.165,-1.031,-4.822,3.906,-5.432
-0.242,-0.164,-1.034,-4.456,2.930,-5.005
-0.242,-0.161,-1.009,-5.859,0.610,-4.700
-0.242,-0.171,-0.981,-8.240,-0.977,-4.272
-0.242,-0.181,-0.961,-10.376,-1.648,-3.784
-0.237,-0.192,-0.949,-12.390,-1.465,-3.235
-0.235,-0.183,-0.949,-12.207,-1.038,-2.380
-0.227,-0.174,-0.953,-12.878,-0.732,-1.099
-0.230,-0.193,-0.934,-13.916,-0.854,-0.732
-0.225,-0.209,-0.934,-11.536,-0.366,0.305
-0.227,-0.203,-0.930,-9.644,0.305,2.441
-0.227,-0.177,-0.927,-7.080,0.732,4.395
-0.237,-0.153,-0.927,-6.470,1.770,5.371
-0.242,-0.137,-0.943,-7.202,3.174,5.371
-0.245,-0.141,-0.966,-7.141,4.517,4.944
-0.254,-0.111,-1.014,-4.333,5.127,5.066
-0.261,-0.094,-1.025,-2.991,4.272,4.578
-0.262,-0.090,-1.026,-0.854,2.258,2.869
-0.260,-0.093,-1.034,-0.671,1.465,1.648
-0.256,-0.097,-1.027,-1.831,0.427,0.122
-0.254,-0.099,-1.039,-3.113,-0.244,-0.854
-0.251,-0.106,-1.048,-5.737,-1.099,-1.648
-0.255,-0.113,-1.047,-7.996,-2.380,-2.014
-0.261,-0.118,-1.027,-8.362,-3.662,-2.319
-0.257,-0.134,-1.010,-3.235,-5.066,-2.747
-0.252,-0.121,-1.031,-0.305,-3.967,-2.625
-0.246,-0.128,-1.029,0.549,-3.967,-3.052
-0.240,-0.146,-1.040,1.526,-4.089,-3.479
-0.230,-0.150,-1.027,0.610,-5.310,-3.113
-0.224,-0.143,-1.009,-2.319,-6.836,-2.625
-0.225,-0.129,-0.999,-6.042,-7.324,-1.953
-0.229,-0.130,-0.988,-9.216,-7.690,-2.258
-0.227,-0.142,-0.960,-9.949,-8.362,-2.808
-0.230,-0.134,-0.947,-9.399,-7.812,-2.686
-0.232,-0.114,-0.977,-7.935,-5.554,-2.686
-0.229,-0.107,-0.991,-6.958,-4.333,-3.174
-0.225,-0.116,-0.989,-6.775,-4.700,-4.028
-0.219,-0.120,-0.992,-6.958,-4.944,-4.822
-0.213,-0.132,-0.982,-6.958,-5.676,-5.310
-0.216,-0.143,-0.960,-8.179,-6.165,-5.554
-0.214,-0.159,-0.947,-8.362,-5.859,-5.859
-0.215,-0.180,-0.946,-7.629,-4.700,-5.676
-0.206,-0.180,-0.971,-5.981,-3.418,-4.028
-0.209,-0.157,-0.987,-6.104,-2.625,-3.113
-0.211,-0.156,-1.011,-5.493,-2.747,-3.174
-0.209,-0.161,-1.001,-5.981,-3.906,-3.296
-0.206,-0.178,-0.987,-2.563,-5.554,-3.418
-0.203,-0.170,-0.964,-2.563,-6.104,-2.747
-0.198,-0.175,-0.945,-1.343,-5.920,-2.136
-0.197,-0.174,-0.937,-0.793,-5.066,-1.648
-0.194,-0.161,-0.956,-0.122,-3.967,-0.610
-0.193,-0.139,-0.965,-0.610,-3.540,0.244
-0.200,-0.145,-0.954,-1.465,-3.296,-0.671
-0.200,-0.155,-0.968,0.000,-2.502,-1.709
-0.204,-0.157,-0.961,2.014,-1.892,-2.258
-0.205,-0.162,-0.952,2.869,-1.160,-2.808
-0.199,-0.172,-0.982,3.662,0.610,-2.991
-0.202,-0.179,-1.001,2.563,1.465,-2.930
-0.208,-0.188,-1.002,1.709,0.427,-2.441
-0.210,-0.194,-0.997,0.916,-0.488,-1.648
-0.215,-0.210,-0.981,0.305,-1.343,-1.099
-0.217,-0.193,-0.995,0.671,-1.099,0.183
-0.220,-0.172,-1.002,0.671,-0.732,1.404
-0.226,-0.168,-0.996,0.793,-0.732,0.977
-0.217,-0.163,-1.008,0.244,-0.671,0.671
-0.213,-0.174,-1.000,-1.099,-0.977,0.305
-0.214,-0.178,-0.985,-0.977,-1.892,0.183
-0.217,-0.157,-0.981,-0.977,-1.831,0.732
-0.210,-0.149,-0.978,-1.099,-1.953,0.549
-0.209,-0.156,-0.988,-1.526,-1.648,-0.244
-0.207,-0.151,-1.003,-2.625,-1.282,-0.427
-0.213,-0.169,-0.986,-1.099,-2.380,-0.916
-0.208,-0.169,-1.001,2.319,-2.563,-0.854
-0.208,-0.168,-0.998,1.648,-2.441,-0.305
-0.214,-0.177,-0.999,0.000,-2.441,-0.366
-0.208,-0.167,-1.013,0.366,-2.319,0.183
-0.205,-0.164,-1.017,-0.244,-2.930,0.610
-0.206,-0.157,-1.006,-1.282,-4.028,0.732
-0.206,-0.159,-0.997,-1.892,-4.639,0.793
-0.206,-0.163,-0.978,-1.770,-5.066,0.549
-0.203,-0.157,-0.980,-0.732,-5.371,0.977
-0.196,-0.155,-0.983,-0.488,-5.188,0.916
-0.207,-0.151,-0.962,0.854,-5.981,0.793
-0.207,-0.115,-0.984,2.808,-5.493,0.854
-0.208,-0.126,-0.992,2.808,-5.005,-0.549
-0.217,-0.160,-0.980,4.272,-5.920,-1.709
-0.219,-0.127,-1.013,8.301,-6.104,-0.671
-1.010,0.345,-1.712,110.840,460.999,38.879
-0.976,0.181,-2.062,67.383,434.509,30.090
-0.932,0.055,-2.323,14.282,392.517,27.832
-0.872,0.056,-2.383,-35.156,338.989,29.907
-0.831,-0.003,-2.338,-86.914,283.264,24.292
-0.806,-0.144,-2.319,-128.357,238.647,12.756
-0.789,-0.344,-2.157,-143.799,198.425,1.648
-0.763,-0.427,-1.998,-134.521,167.053,1.404
-0.708,-0.120,-1.924,-106.079,148.132,12.207
-0.689,-0.049,-1.918,-77.148,135.437,16.907
-0.626,-0.010,-1.853,-60.547,123.291,15.503
-0.617,0.015,-1.944,-29.175,119.446,19.409
-0.568,0.146,-2.022,5.798,111.328,26.733
-0.519,0.339,-1.993,31.067,95.764,33.630
-0.476,0.457,-1.957,47.791,79.895,32.349
-0.454,0.442,-1.900,50.781,61.951,23.926
-0.417,0.404,-1.765,41.870,39.368,16.052
-0.400,0.403,-1.606,28.259,19.043,11.536
-0.380,0.392,-1.425,11.902,2.625,6.409
-0.356,0.355,-1.248,-3.479,-8.240,-0.366
-0.329,0.261,-1.101,-16.357,-14.893,-7.996
-0.300,0.133,-0.962,-26.428,-18.616,-15.381
-0.268,0.028,-0.852,-31.677,-18.250,-19.470
-0.250,-0.063,-0.813,-31.006,-12.695,-21.057
-0.226,-0.121,-0.829,-26.184,-5.615,-20.508
-0.222,-0.160,-0.843,-20.569,-0.977,-18.921
-0.211,-0.213,-0.836,-15.747,1.648,-17.273
-0.197,-0.263,-0.871,-13.000,5.493,-14.771
-0.189,-0.298,-0.927,-13.062,8.362,-10.864
-0.200,-0.288,-0.972,-13.000,9.155,-5.005
-0.203,-0.245,-0.998,-11.658,8.240,0.793
-0.216,-0.221,-0.998,-10.742,6.653,5.554
-0.228,-0.167,-0.978,-10.376,5.554,10.071
-0.239,-0.095,-1.018,-9.644,6.836,13.794
-0.256,-0.046,-1.026,-8.789,7.385,15.198
-0.260,-0.011,-1.036,-6.348,7.080,14.771
-0.273,0.015,-1.042,-4.456,7.385,14.832
-0.283,0.057,-1.047,-1.892,7.141,14.587
-0.282,0.096,-1.067,0.244,7.019,13.245
-0.286,0.104,-1.073,-0.610,6.104,10.498
-0.291,0.114,-1.052,-0.977,4.028,7.690
-0.292,0.134,-1.021,-0.427,2.625,5.493
-0.286,0.105,-1.041,-0.610,3.723,1.831
-0.283,0.075,-1.068,-3.052,3.845,-1.160
-0.282,0.056,-1.068,-5.676,2.686,-2.808
-0.275,0.018,-1.075,-6.470,1.404,-4.028
-0.272,-0.016,-1.069,-8.057,-0.244,-5.127
-0.268,-0.057,-1.040,-10.132,-2.502,-5.554
-0.267,-0.089,-1.004,-11.902,-4.150,-4.517
-0.271,-0.069,-0.996,-9.888,-4.150,-2.563
-0.267,-0.040,-0.992,-7.019,-3.296,-0.854
-0.268,-0.049,-1.013,-5.127,-1.953,-0.671
-0.265,-0.036,-1.005,-2.258,-2.014,-0.305
-0.266,-0.024,-0.998,-0.183,-2.380,0.000
-0.266,-0.015,-0.992,-0.183,-2.136,-0.305
-0.264,-0.031,-1.000,-1.648,-1.770,-1.099
-0.264,-0.036,-1.011,-1.526,-1.709,-1.038
-0.260,-0.027,-1.008,-1.770,-2.319,-0.427
-0.261,-0.053,-1.003,-4.517,-3.174,-0.854
-0.260,-0.060,-0.998,-6.592,-3.906,-0.488
-0.259,-0.043,-1.003,-7.935,-4.272,0.793
-0.259,-0.054,-0.990,-8.850,-5.188,0.977
-0.262,-0.036,-0.966,-7.629,-5.737,1.770
-0.263,-0.024,-0.963,-4.456,-4.822,2.197
-0.260,-0.028,-0.968,-2.319,-3.479,1.343
-0.256,-0.015,-0.953,-1.282,-3.052,1.221
-0.254,0.016,-0.955,-0.732,-2.197,0.793
-0.254,-0.001,-0.993,-2.441,-0.244,-1.221
-0.252,-0.016,-1.005,-4.395,-0.549,-2.808
-0.250,-0.031,-1.021,-5.005,-1.282,-2.930
-0.248,-0.043,-1.030,-6.287,-1.953,-2.869
-0.248,-0.055,-1.023,-6.165,-3.052,-2.563
-0.244,-0.051,-1.005,-3.784,-4.211,-1.648
-0.235,-0.061,-0.987,-4.028,-5.005,-1.587
-0.246,-0.075,-0.964,-5.615,-5.493,-1.587
-0.242,-0.068,-0.944,-5.188,-5.554,-1.099
-0.238,-0.068,-0.950,-2.991,-4.395,-0.793
-0.233,-0.071,-0.964,-3.235,-3.784,-0.732
-0.237,-0.065,-0.963,-6.104,-3.845,-0.427
-0.240,-0.063,-0.966,-7.385,-3.784,0.183
-0.241,-0.064,-0.986,-6.775,-3.113,0.549
-0.241,-0.051,-0.988,-4.456,-2.930,1.160
-0.243,-0.033,-0.990,-2.502,-3.113,1.404
-0.241,-0.035,-0.990,-2.441,-3.357,0.793
-0.233,-0.042,-0.983,-4.578,-3.723,0.000
-0.235,-0.054,-0.969,-4.517,-4.333,-0.244
-0.233,-0.047,-0.971,-4.761,-4.150,-0.610
-0.234,-0.059,-0.977,-5.798,-3.723,-0.732
-0.234,-0.069,-0.986,-5.920,-3.357,-1.099
-0.231,-0.071,-0.980,-5.493,-3.784,-0.916
-0.236,-0.075,-0.965,-5.310,-4.150,-0.854
-0.234,-0.069,-0.969,-4.761,-3.601,-0.488
-0.229,-0.075,-0.978,-5.066,-3.052,-0.305
-0.229,-0.078,-0.967,-4.944,-3.479,0.183
-0.228,-0.060,-0.959,-4.272,-3.540,0.977
-0.228,-0.043,-0.971,-3.113,-2.563,1.099
-0.227,-0.042,-0.997,-3.052,-1.892,0.305
-0.230,-0.047,-0.987,-2.930,-2.319,-0.610
-0.224,-0.051,-0.991,-1.770,-2.563,-1.343
-0.225,-0.070,-0.991,-1.770,-2.441,-2.136
-0.220,-0.077,-0.981,-3.113,-3.113,-2.136
-0.220,-0.095,-0.965,-0.549,-3.540,-1.770
-0.220,-0.085,-0.972,-0.610,-3.418,-0.732
-0.218,-0.100,-0.976,-1.282,-3.235,-0.488
-0.217,-0.083,-0.981,-1.221,-3.357,0.305
-0.216,-0.073,-0.993,-0.671,-3.540,0.732
-0.216,-0.072,-0.988,-1.892,-4.211,0.488
-0.217,-0.086,-0.964,-3.845,-5.371,0.061
-0.215,-0.091,-0.943,-3.052,-5.615,0.427
-0.211,-0.066,-0.963,-2.136,-4.517,1.587
-0.213,-0.058,-0.959,-3.418,-4.578,1.648
-0.216,-0.065,-0.949,-4.150,-4.639,0.977
-0.216,-0.079,-0.957,-4.456,-3.662,0.488
-0.215,-0.084,-0.953,-5.737,-3.052,0.488
-0.213,-0.096,-0.964,-6.287,-2.258,0.793
-0.211,-0.075,-0.980,-4.700,-1.282,1.892
-0.212,-0.057,-0.977,-4.150,-1.343,2.625
-0.213,-0.035,-0.955,-4.211,-1.648,2.441
-0.210,-0.046,-0.966,-2.625,-0.793,0.732
-0.464,0.254,-1.933,-101.135,371.033,-52.002
-0.378,0.225,-1.986,-87.158,349.304,-61.462
-0.438,0.058,-1.932,-43.640,328.186,-67.932
-0.454,-0.097,-1.840,9.827,309.875,-69.641
-0.444,-0.061,-1.876,58.289,300.537,-56.458
-0.412,0.026,-1.872,83.740,291.931,-43.335
-0.420,0.022,-1.938,93.384,285.156,-38.513
-0.357,-0.063,-2.076,93.689,275.330,-36.621
-0.254,-0.081,-2.290,75.745,258.789,-31.738
-0.229,-0.092,-2.534,63.599,232.666,-28.809
-0.146,-0.165,-2.331,44.617,175.842,-26.062
-0.165,-0.168,-2.006,23.987,126.221,-17.151
-0.185,-0.156,-1.809,10.864,100.342,-6.042
-0.189,-0.117,-1.660,4.333,83.801,3.967
-0.181,-0.014,-1.516,3.113,71.289,15.442
-0.171,0.112,-1.436,5.432,65.247,23.010
-0.158,0.180,-1.408,9.033,62.012,24.902
-0.160,0.199,-1.298,12.329,55.298,22.278
-0.156,0.220,-1.177,16.418,50.537,19.470
-0.141,0.209,-1.174,19.226,52.124,15.259
-0.130,0.179,-1.188,21.301,53.772,11.230
-0.129,0.147,-1.207,23.682,51.880,9.338
-0.131,0.146,-1.209,26.062,47.668,9.705
-0.144,0.169,-1.159,25.452,42.664,10.864
-0.148,0.173,-1.134,20.752,40.344,10.437
-0.146,0.135,-1.163,13.550,39.795,8.484
-0.155,0.122,-1.205,5.737,38.879,7.751
-0.151,0.123,-1.206,3.662,36.011,8.179
-0.172,0.132,-1.262,0.793,34.424,9.277
-0.188,0.137,-1.222,1.404,28.198,9.338
-0.193,0.169,-1.216,5.188,25.696,10.559
-0.204,0.210,-1.224,9.155,24.719,11.047
-0.198,0.230,-1.250,10.986,22.217,9.949
-0.197,0.233,-1.183,9.949,15.442,7.568
-0.175,0.190,-1.117,6.348,9.644,4.578
-0.185,0.145,-1.092,1.404,8.057,2.930
-0.182,0.131,-1.079,-3.418,7.202,3.540
-0.180,0.149,-1.083,-6.042,5.859,4.944
-0.184,0.138,-1.071,-6.348,4.028,5.554
-0.184,0.183,-1.078,-5.981,2.197,6.714
-0.183,0.236,-1.088,-6.836,1.099,6.958
-0.182,0.220,-1.063,-6.958,-0.610,3.052
-0.177,0.175,-1.033,-7.263,-2.319,-0.977
-0.176,0.131,-0.997,-8.606,-2.869,-3.113
-0.163,0.108,-1.006,-9.216,-2.075,-3.540
-0.154,0.109,-1.010,-9.888,-2.014,-3.296
-0.158,0.104,-0.990,-10.132,-3.235,-3.113
-0.156,0.100,-0.953,-8.606,-4.150,-3.052
-0.152,0.113,-0.950,-7.080,-3.174,-2.930
-0.146,0.101,-0.964,-6.104,-1.282,-3.418
-0.139,0.058,-0.953,-5.676,-1.343,-4.456
-0.136,0.049,-0.943,-4.272,-1.221,-3.845
-0.134,0.068,-0.953,-3.967,-0.671,-2.869
-0.130,0.070,-0.953,-4.700,0.061,-2.808
-0.137,0.065,-0.953,-5.310,-0.122,-2.686
-0.134,0.069,-0.972,-5.066,0.183,-2.075
-0.137,0.083,-0.966,-6.042,-0.427,-1.282
-0.140,0.075,-0.948,-6.226,-0.916,-1.404
-0.129,0.055,-0.951,-4.761,-0.366,-1.831
-0.124,0.056,-0.954,-4.150,0.305,-1.160
-0.128,0.072,-0.964,-4.272,0.916,-0.183
-0.128,0.069,-0.965,-4.272,0.732,-0.305
-0.131,0.053,-0.953,-4.028,0.488,-0.488
-0.130,0.066,-0.966,-1.831,1.465,0.122
-0.131,0.070,-0.989,-0.854,2.258,1.038
-0.130,0.070,-0.995,-1.648,1.587,1.099
-0.126,0.075,-1.014,-3.601,0.916,1.160
-0.128,0.054,-0.986,-4.456,0.000,0.977
-0.127,0.034,-0.986,-1.587,0.488,1.465
-0.130,0.038,-0.991,-0.183,1.770,3.296
-0.134,0.078,-1.001,-0.244,2.136,5.371
-0.138,0.103,-1.029,-0.854,2.869,6.165
-0.147,0.117,-1.042,-2.380,2.136,5.737
-0.154,0.135,-1.036,-2.502,0.916,5.188
-0.153,0.143,-1.030,-2.441,0.488,3.967
-0.154,0.133,-1.045,-3.113,1.343,2.319
-0.150,0.127,-1.050,-3.967,1.221,0.977
-0.149,0.118,-1.031,-3.357,-0.061,-0.122
-0.149,0.113,-1.033,-0.793,-0.854,-0.732
-0.147,0.104,-1.030,-0.977,-1.465,-1.404
-0.147,0.100,-1.017,-1.282,-2.625,-1.831
-0.151,0.089,-0.991,-0.610,-3.174,-2.014
-0.143,0.091,-1.005,-1.038,-1.709,-1.709
-0.127,0.089,-1.015,-1.953,-0.793,-1.465
-0.149,0.087,-1.000,-2.930,-0.977,-1.282
-0.139,0.065,-1.000,-1.770,-0.793,-1.587
-0.139,0.080,-1.006,-0.549,-0.671,-0.671
-0.139,0.077,-0.984,-0.549,-1.038,-0.366
-0.138,0.064,-0.992,-1.282,-0.427,-0.793
-0.137,0.068,-1.006,-1.221,-0.061,-0.061
-0.135,0.071,-1.003,-1.831,-0.977,0.793
-0.134,0.078,-0.997,-2.075,-1.587,1.343
-0.136,0.082,-0.991,-1.648,-1.343,1.465
-0.137,0.094,-0.996,0.610,-0.916,1.343
-0.134,0.099,-0.994,1.892,-0.488,0.854
-0.131,0.084,-0.997,2.014,0.000,0.000
-0.133,0.072,-0.998,1.343,-0.244,-0.427
-0.127,0.083,-0.989,-0.061,-0.366,-0.183
-0.130,0.067,-0.984,-0.671,-0.305,-0.305
-0.126,0.057,-0.997,-1.343,0.183,-0.061
-0.129,0.070,-0.996,-1.648,0.061,1.160
-0.136,0.088,-1.004,-0.366,0.488,1.953
-0.135,0.097,-1.002,0.366,0.671,1.892
-0.137,0.089,-1.012,0.549,0.916,0.916
-0.138,0.093,-1.030,-0.061,1.221,0.549
-0.139,0.108,-1.026,-0.854,0.244,0.610
-0.137,0.102,-1.011,-1.221,-0.854,0.000
-0.140,0.081,-1.005,-1.221,-1.099,-1.038
-0.137,0.094,-1.007,-1.160,-1.099,-0.244
-0.137,0.109,-1.028,-1.953,-0.977,0.244
-0.133,0.092,-1.025,-2.319,-1.770,-0.854
-0.136,0.088,-1.010,-2.258,-2.686,-1.221
-0.136,0.094,-1.007,-2.014,-2.869,-1.221
-0.137,0.076,-0.991,-1.038,-2.563,-1.892
-0.132,0.064,-0.994,-2.075,-2.625,-2.136
-0.128,0.072,-1.007,-2.808,-2.136,-1.038
-0.125,0.075,-1.017,-3.723,-2.930,-0.671
-0.126,0.071,-1.009,-4.517,-4.028,-0.916
-0.130,0.062,-0.997,-2.319,-5.188,-0.916
-0.870,0.212,-1.750,70.923,376.160,12.817
-0.850,0.133,-1.891,39.856,354.797,5.005
-0.837,0.044,-1.905,1.343,324.890,-4.944
-0.819,0.067,-1.952,-42.908,302.246,-5.981
-0.847,0.068,-1.963,-82.031,280.579,-11.414
-0.819,-0.051,-2.109,-117.432,260.864,-24.841
-0.758,-0.228,-2.255,-145.813,243.591,-40.283
-0.678,-0.458,-2.321,-152.344,221.863,-50.964
-0.596,-0.645,-2.301,-133.606,199.219,-50.781
-0.508,-0.690,-2.348,-93.933,179.871,-35.461
-0.396,-0.547,-2.398,-47.546,160.645,-10.925
-0.321,-0.302,-2.477,-5.798,136.902,12.451
-0.284,-0.111,-2.397,29.785,107.300,27.283
-0.261,0.131,-2.193,54.688,74.280,38.513
-0.265,0.305,-1.955,67.749,49.377,41.565
-0.278,0.379,-1.729,68.542,31.921,38.757
-0.258,0.494,-1.532,65.491,20.020,34.912
-0.233,0.557,-1.402,58.838,11.597,25.818
-0.211,0.557,-1.300,45.105,6.042,12.451
-0.193,0.483,-1.207,30.029,1.099,-1.404
-0.182,0.346,-1.116,18.372,-2.380,-13.489
-0.171,0.215,-1.003,13.245,-5.859,-21.790
-0.157,0.115,-0.912,12.024,-6.592,-26.611
-0.136,0.008,-0.855,10.254,-3.906,-30.273
-0.111,-0.089,-0.853,7.080,0.671,-32.227
-0.094,-0.176,-0.876,1.160,5.249,-32.104
-0.072,-0.248,-0.916,-4.456,7.996,-29.846
-0.061,-0.309,-0.940,-7.507,9.583,-24.841
-0.061,-0.274,-0.992,-6.226,10.559,-16.907
-0.071,-0.218,-1.032,-4.211,10.254,-8.728
-0.081,-0.153,-1.041,-1.892,7.996,-3.174
-0.092,-0.106,-1.032,0.671,5.798,0.488
-0.104,-0.063,-1.043,0.916,5.737,2.136
-0.110,-0.038,-1.054,-1.343,6.348,2.991
-0.117,-0.037,-1.050,-3.784,5.798,2.808
-0.118,-0.007,-1.065,-5.127,4.822,3.479
-0.123,0.001,-1.072,-7.080,3.662,3.967
-0.125,-0.002,-1.047,-7.629,1.282,3.845
-0.125,0.022,-1.031,-7.935,-0.244,4.456
-0.131,0.029,-1.023,-8.972,-0.793,4.028
-0.137,0.032,-1.007,-9.949,-1.648,3.235
-0.138,0.035,-0.987,-9.277,-2.197,2.563
-0.142,0.053,-0.995,-8.362,-1.587,1.892
-0.140,0.047,-0.989,-7.751,-0.549,0.183
-0.135,0.051,-0.994,-5.798,0.916,-1.404
-0.133,0.037,-1.001,-4.822,2.563,-2.747
-0.140,0.027,-1.006,-4.578,3.357,-3.662
-0.136,-0.013,-1.002,-4.150,3.784,-4.883
-0.130,-0.022,-1.036,-3.906,4.822,-5.249
-0.126,-0.039,-1.051,-4.700,4.639,-4.639
-0.123,-0.051,-1.071,-3.601,3.662,-4.150
-0.120,-0.047,-1.078,-1.343,2.502,-2.930
-0.125,-0.041,-1.064,-0.977,0.854,-2.197
-0.129,-0.027,-1.057,-1.953,-0.183,-1.648
-0.128,-0.042,-1.032,-3.784,-1.282,-1.587
-0.130,-0.035,-1.032,-6.042,-1.587,-1.099
-0.128,-0.025,-1.045,-9.338,-1.892,-0.610
-0.129,-0.011,-1.055,-11.536,-2.625,-0.305
-0.132,-0.018,-1.046,-10.071,-3.784,-0.366
-0.133,-0.007,-1.037,-7.019,-4.395,-0.244
-0.137,-0.000,-1.008,-4.578,-4.944,-0.122
-0.134,-0.006,-0.982,-3.784,-4.395,-0.916
-0.128,-0.012,-0.995,-4.639,-2.441,-1.587
-0.126,-0.026,-1.015,-7.263,-1.160,-2.197
-0.122,-0.046,-1.023,-9.094,-1.221,-2.502
-0.123,-0.053,-1.041,-8.728,-1.465,-2.441
-0.123,-0.060,-1.040,-8.789,-2.014,-2.136
-0.127,-0.073,-1.029,-7.568,-2.869,-2.014
-0.122,-0.071,-1.025,-5.920,-3.113,-1.038
-0.124,-0.061,-1.006,-3.418,-3.235,0.061
-0.118,-0.054,-0.998,-1.892,-2.991,0.671
-0.114,-0.045,-0.996,-1.587,-2.808,1.343
-0.116,-0.042,-1.011,-2.014,-2.686,1.465
-0.120,-0.029,-0.996,-1.465,-3.296,1.587
-0.119,-0.032,-1.004,-1.282,-2.869,1.465
-0.116,-0.045,-1.011,-0.488,-2.625,0.732
-0.117,-0.050,-1.024,-0.427,-2.930,0.610
-0.109,-0.060,-1.014,-0.549,-3.906,0.732
-0.115,-0.062,-1.013,-1.160,-4.395,0.916
-0.114,-0.054,-0.999,-0.244,-4.578,1.648
-0.117,-0.032,-0.992,0.366,-4.333,2.441
-0.116,-0.017,-0.978,-0.366,-4.028,2.319
-0.114,-0.020,-0.965,-1.587,-3.845,1.343
-0.113,-0.026,-0.965,-2.869,-3.296,0.305
-0.117,-0.031,-0.964,-3.113,-2.563,0.061
-0.113,-0.039,-0.981,-2.319,-1.831,0.000
-0.108,-0.042,-0.995,-1.343,-1.404,-0.366
-0.113,-0.064,-0.982,-1.587,-1.953,-0.366
-0.110,-0.071,-0.988,-1.343,-2.136,0.244
-0.106,-0.051,-0.998,0.366,-1.709,1.526
-0.109,-0.035,-0.985,1.282,-2.380,2.197
-0.108,-0.035,-0.974,1.404,-2.380,2.075
-0.107,-0.035,-0.976,1.160,-1.892,1.953
-0.107,-0.013,-0.990,0.305,-1.160,2.014
-0.106,-0.020,-1.003,-0.549,-0.488,1.343
-0.103,-0.042,-1.004,-1.709,-0.183,0.549
-0.102,-0.038,-1.004,-0.854,-0.366,0.732
-0.106,-0.029,-0.997,-0.793,-0.305,0.916
-0.105,-0.021,-0.998,-1.465,-0.732,0.610
-0.106,-0.031,-0.997,-2.625,-0.732,-0.122
-0.104,-0.036,-0.994,-4.333,-1.099,-0.549
-0.104,-0.045,-0.994,-5.920,-1.099,-0.488
-0.104,-0.042,-0.998,-5.737,-1.221,-0.488
-0.104,-0.032,-0.978,-4.822,-1.343,-0.183
-0.107,-0.036,-0.973,-3.479,-1.038,-0.305
-0.107,-0.040,-0.961,-2.014,-0.671,-0.305
-0.106,-0.043,-0.958,-0.854,-0.244,-0.122
-0.104,-0.044,-0.980,-0.427,1.099,0.183
-0.099,-0.042,-1.015,-0.671,1.953,0.366
-0.097,-0.042,-1.031,-1.343,1.892,0.000
-0.099,-0.048,-1.035,-1.526,1.099,-0.122
-0.101,-0.042,-1.038,-1.221,1.038,0.305
-0.103,-0.029,-1.045,0.122,1.038,0.610
-0.105,-0.032,-1.032,0.366,0.366,0.610
-0.104,-0.026,-1.024,0.244,-0.305,0.366
-0.106,-0.013,-1.017,0.061,-0.671,0.366
-0.107,-0.012,-1.020,-0.671,-0.549,-0.061
-0.105,-0.022,-1.026,-1.404,-0.427,-0.793
-0.105,-0.027,-1.033,-0.793,-0.427,-1.404
-1.089,0.184,-1.981,49.805,498.108,-15.076
-0.924,0.046,-2.805,-75.928,491.089,-34.058
-0.750,-0.345,-3.267,-169.250,434.753,-62.012
-0.489,-0.269,-2.936,-206.238,332.642,-64.270
-0.559,-0.416,-2.261,-189.453,258.484,-68.909
-0.706,-0.516,-1.718,-143.005,228.333,-74.585
-0.778,-0.419,-1.567,-91.492,235.229,-67.078
-0.738,-0.392,-1.609,-53.284,245.911,-70.129
-0.397,-0.452,-1.901,-53.223,250.916,-81.116
-0.727,-0.991,-2.231,-64.453,244.629,-101.013
-0.373,-0.852,-2.031,-50.964,212.097,-94.971
-0.361,-1.148,-2.543,-43.335,206.055,-77.881
-0.303,-0.974,-2.355,-3.357,171.204,-51.025
-0.303,-0.783,-2.196,32.593,140.625,-18.127
-0.283,-0.628,-2.098,64.758,127.502,0.366
-0.263,-0.469,-2.032,88.440,114.868,13.977
-0.240,-0.321,-1.931,97.229,98.755,23.010
-0.228,-0.206,-1.805,95.032,79.956,26.733
-0.181,-0.070,-1.696,86.060,60.974,28.198
-0.207,0.027,-1.576,72.693,42.175,27.161
-0.209,0.154,-1.457,55.054,26.306,24.841
-0.232,0.240,-1.407,38.879,16.479,21.301
-0.237,0.258,-1.357,24.292,8.423,13.916
-0.219,0.209,-1.275,12.207,0.061,3.540
-0.192,0.109,-1.197,1.038,-5.493,-6.714
-0.176,-0.016,-1.120,-7.202,-7.996,-14.709
-0.155,-0.114,-1.041,-9.094,-10.498,-18.921
-0.127,-0.168,-0.960,-10.498,-11.475,-19.409
-0.098,-0.243,-0.922,-14.099,-9.094,-19.653
-0.082,-0.297,-0.929,-15.259,-5.005,-18.433
-0.078,-0.307,-0.942,-13.855,-2.319,-14.648
-0.081,-0.326,-0.946,-14.038,-0.916,-11.414
-0.073,-0.339,-0.931,-12.512,-0.366,-9.277
-0.075,-0.344,-0.948,-10.803,1.587,-5.981
-0.076,-0.329,-0.964,-9.827,3.784,-3.174
-0.088,-0.322,-0.988,-8.728,5.676,-0.854
-0.098,-0.298,-0.994,-5.920,6.348,2.075
-0.107,-0.267,-1.002,-1.160,6.531,4.517
-0.114,-0.234,-1.003,1.343,6.958,6.531
-0.123,-0.193,-1.024,4.150,7.263,8.179
-0.130,-0.149,-1.048,4.883,6.592,8.850
-0.140,-0.125,-1.042,3.601,5.005,8.362
-0.138,-0.122,-1.036,1.343,4.272,7.080
-0.141,-0.115,-1.039,-1.221,4.272,5.737
-0.141,-0.113,-1.032,-3.418,3.967,4.395
-0.141,-0.120,-1.022,-4.211,3.906,2.869
-0.140,-0.123,-1.005,-3.296,3.601,1.892
-0.141,-0.121,-1.012,-2.991,4.333,1.282
-0.142,-0.122,-1.025,-2.625,5.005,0.488
-0.141,-0.127,-1.036,-3.113,4.700,-0.854
-0.138,-0.152,-1.049,-4.272,3.845,-2.136
-0.137,-0.161,-1.055,-3.296,2.502,-2.808
-0.135,-0.178,-1.041,-2.441,1.038,-2.930
-0.137,-0.183,-1.034,-1.770,0.183,-2.869
-0.138,-0.201,-1.012,-2.563,-0.183,-2.869
-0.131,-0.228,-1.004,-3.174,-0.427,-2.686
-0.132,-0.214,-0.992,-3.357,-0.732,-0.244
-0.133,-0.197,-0.983,-2.258,-0.854,1.221
-0.133,-0.188,-0.972,-2.136,-0.732,1.953
-0.131,-0.180,-0.983,-2.319,0.122,2.258
-0.130,-0.170,-1.016,-1.953,1.038,2.258
-0.131,-0.171,-1.027,-3.235,0.977,1.770
-0.134,-0.185,-1.017,-3.418,-0.061,1.221
-0.130,-0.189,-0.993,-0.977,-0.427,1.587
-0.132,-0.159,-1.009,1.404,0.671,2.869
-0.130,-0.141,-1.031,0.916,1.526,2.869
-0.129,-0.143,-1.030,0.122,0.427,1.587
-0.125,-0.145,-1.026,-1.709,-0.793,0.183
-0.130,-0.141,-1.042,-3.357,-1.282,-0.610
-0.129,-0.161,-1.042,-4.761,-2.991,-1.953
-0.128,-0.194,-1.025,-6.531,-4.883,-2.991
-0.114,-0.211,-0.969,-5.859,-5.920,-2.991
-0.138,-0.219,-0.991,-3.723,-3.235,-3.113
-0.124,-0.256,-1.019,-4.456,-0.793,-2.869
-0.110,-0.190,-0.975,-3.113,-5.310,1.282
-0.117,-0.183,-0.961,-2.686,-5.066,1.221
-0.120,-0.217,-0.992,-6.042,-2.197,-0.732
-0.114,-0.209,-0.998,-6.897,-2.625,0.366
-0.121,-0.197,-0.977,-4.944,-3.235,1.404
-0.124,-0.202,-0.979,-2.930,-2.625,1.160
-0.116,-0.173,-0.988,-1.831,-1.587,1.953
-0.120,-0.160,-0.991,-2.014,-1.770,2.075
-0.119,-0.167,-0.988,-3.662,-1.526,0.610
-0.114,-0.181,-0.975,-4.639,-1.770,-0.427
-0.115,-0.188,-0.985,-6.042,-1.343,-0.916
-0.115,-0.191,-0.992,-7.080,-1.038,-0.854
-0.115,-0.211,-0.983,-7.019,-1.465,-1.282
-0.118,-0.217,-0.975,-5.127,-2.075,-0.854
-0.117,-0.205,-0.962,-4.211,-1.953,0.244
-0.114,-0.201,-0.973,-4.028,-0.732,0.488
-0.113,-0.200,-0.996,-4.089,0.793,0.427
-0.113,-0.195,-1.016,-4.211,0.671,0.488
-0.115,-0.188,-1.005,-3.052,-0.671,1.099
-0.119,-0.192,-0.992,-2.075,-1.343,0.854
-0.115,-0.183,-0.984,-0.671,-0.854,0.916
-0.117,-0.193,-0.980,0.183,-0.305,0.610
-0.115,-0.203,-0.986,0.977,-0.061,0.427
-0.110,-0.201,-0.982,0.183,-0.366,0.854
-0.112,-0.195,-0.992,-0.183,-0.427,1.221
-0.112,-0.191,-1.010,-0.549,-0.061,1.160
-0.113,-0.184,-1.012,-0.854,-0.549,1.221
-0.112,-0.176,-1.002,-0.977,-1.404,0.793
-0.111,-0.174,-0.992,-0.305,-1.587,0.244
-0.109,-0.194,-1.000,-0.061,-1.221,-0.671
-0.112,-0.182,-0.983,0.183,-2.319,-0.061
-0.114,-0.186,-0.961,0.671,-3.357,-0.061
-0.116,-0.182,-0.968,1.282,-2.808,-0.305
-0.115,-0.184,-0.984,0.732,-2.258,-0.671
-0.113,-0.175,-0.991,0.427,-2.380,-0.854
-0.108,-0.181,-0.985,0.610,-2.991,-1.465
-0.105,-0.186,-0.981,1.038,-3.235,-1.892
-0.107,-0.187,-0.973,0.854,-3.296,-2.136
-0.109,-0.195,-0.953,0.671,-3.235,-2.563
-0.112,-0.188,-0.969,0.549,-2.319,-2.625
-0.117,-0.182,-0.988,-0.793,-1.404,-2.502
-0.127,-0.198,-1.017,-0.061,-1.343,-2.930
-0.110,-0.174,-1.047,2.075,-3.296,-2.014
-0.118,-0.161,-1.046,3.113,-6.409,-1.343
-0.118,-0.151,-1.071,2.502,-6.653,-2.441
-1.113,-0.080,-1.908,42.908,432.434,26.062
-1.044,0.068,-2.613,30.334,427.063,34.546
-0.929,0.194,-3.215,0.061,387.878,35.950
-0.800,0.281,-3.473,-31.433,317.200,33.386
-0.707,0.283,-3.331,-52.063,237.000,27.649
-0.653,0.219,-3.009,-52.551,171.997,22.583
-0.609,0.188,-2.701,-36.682,128.723,22.278
-0.509,0.298,-2.359,-17.395,96.619,26.245
-0.418,0.362,-2.127,-1.953,75.745,25.757
-0.316,0.403,-2.022,5.493,67.017,20.813
-0.225,0.378,-1.879,5.615,53.284,14.404
-0.174,0.323,-1.651,1.953,35.583,8.911
-0.161,0.268,-1.379,-2.441,20.935,4.822
-0.151,0.195,-1.223,-6.470,18.860,0.977
-0.121,0.115,-1.171,-9.644,23.437,-2.014
-0.095,0.060,-1.170,-12.085,26.306,-2.625
-0.082,0.083,-1.171,-10.498,26.733,-0.916
-0.076,0.114,-1.159,-5.737,26.184,-0.244
-0.085,0.090,-1.111,0.488,24.719,-1.770
-0.082,0.089,-1.092,4.089,23.987,-2.808
-0.054,0.024,-1.139,4.028,24.292,-4.395
-0.046,0.000,-1.169,2.197,22.766,-4.333
-0.048,-0.005,-1.156,0.916,17.944,-2.869
-0.059,-0.007,-1.140,-1.099,13.916,-1.221
-0.081,-0.024,-1.119,-2.502,10.742,0.549
-0.092,0.005,-1.113,-4.150,8.545,3.540
-0.105,0.003,-1.125,-6.165,7.935,5.249
-0.110,0.016,-1.147,-6.226,6.775,6.592
-0.116,0.055,-1.150,-6.409,4.822,8.362
-0.119,0.080,-1.118,-6.836,1.831,8.545
-0.117,0.084,-1.119,-6.470,0.427,7.446
-0.115,0.096,-1.102,-6.592,-0.977,6.592
-0.115,0.109,-1.075,-3.540,-1.587,5.554
-0.115,0.120,-1.099,-0.061,0.549,4.333
-0.117,0.112,-1.095,1.038,1.038,2.686
-0.123,0.092,-1.080,3.052,0.549,0.916
-0.119,0.099,-1.076,5.249,0.977,0.305
-0.112,0.115,-1.093,5.798,1.526,-0.610
-0.095,0.081,-1.092,4.822,1.099,-2.625
-0.076,0.051,-1.081,3.174,-0.732,-3.296
-0.071,0.040,-1.065,2.319,-2.380,-3.052
-0.072,0.016,-1.011,0.610,-4.578,-2.869
-0.067,-0.003,-0.984,-2.197,-5.371,-2.258
-0.062,-0.001,-0.987,-5.493,-4.272,-1.343
-0.060,0.023,-0.982,-6.897,-2.991,0.183
-0.070,0.016,-0.977,-4.272,-1.404,0.549
-0.075,0.032,-0.983,-1.038,0.427,1.160
-0.074,0.041,-0.997,0.366,2.075,1.160
-0.077,0.053,-1.032,-0.122,3.296,0.488
-0.084,0.050,-1.034,-1.648,2.625,-0.366
-0.090,0.028,-1.008,-2.136,1.038,-1.160
-0.093,0.035,-1.017,-2.075,0.793,-0.977
-0.089,0.049,-1.031,-2.563,1.160,-0.427
-0.090,0.042,-1.028,-1.282,0.854,-0.610
-0.092,0.054,-1.028,-0.305,0.488,-0.122
-0.097,0.040,-0.998,0.000,-0.305,-0.488
-0.099,0.033,-1.008,0.488,0.000,-0.671
-0.096,0.039,-1.008,-0.244,0.549,0.000
-0.092,0.022,-1.008,0.610,0.244,-0.122
-0.089,0.047,-1.023,3.052,1.160,0.854
-0.087,0.074,-1.025,3.784,1.160,1.282
-0.084,0.069,-1.016,2.502,0.610,0.122
-0.078,0.057,-1.009,1.343,0.488,-1.160
-0.075,0.033,-0.996,0.916,0.244,-1.770
-0.077,0.025,-1.000,0.671,0.610,-1.587
-0.074,0.026,-1.008,0.916,0.916,-0.793
-0.076,0.022,-1.034,0.366,1.343,-0.183
-0.074,0.043,-1.039,-0.366,0.488,0.549
-0.078,0.026,-1.027,-2.136,-1.038,0.427
-0.082,0.024,-1.012,-2.319,-2.014,0.305
-0.079,0.038,-1.028,-1.587,-1.282,1.343
-0.078,0.031,-1.029,-1.709,-1.648,0.977
-0.080,0.044,-1.016,-2.136,-2.319,1.038
-0.080,0.041,-0.993,-2.380,-2.625,0.671
-0.082,0.059,-1.006,-1.465,-1.404,0.610
-0.082,0.070,-1.004,0.305,-0.549,0.427
-0.078,0.052,-1.008,0.610,-0.488,-0.916
-0.078,0.025,-1.023,0.854,0.000,-1.526
-0.070,0.016,-1.028,0.671,-0.122,-0.793
-0.073,0.014,-1.047,1.648,0.000,0.183
-0.077,0.015,-1.043,1.831,-0.427,1.282
-0.082,0.030,-1.032,2.136,-1.465,2.380
-0.079,0.041,-1.010,2.747,-2.258,2.808
-0.075,0.068,-1.014,2.258,-1.770,2.808
-0.074,0.056,-1.015,0.244,-1.709,1.831
-0.073,0.060,-1.013,-0.244,-2.136,1.343
-0.074,0.053,-0.999,-1.587,-2.625,0.977
-0.073,0.032,-0.994,-2.014,-2.747,0.366
-0.074,0.045,-1.000,-1.709,-2.197,1.038
-0.075,0.039,-1.007,-1.038,-1.709,1.038
-0.079,0.061,-1.015,0.366,-0.854,1.404
-0.078,0.057,-1.011,2.625,-0.427,0.916
-0.074,0.061,-1.027,3.418,-0.183,0.488
-0.073,0.045,-1.014,2.625,-0.793,0.122
-0.074,0.030,-1.005,1.648,-1.587,-0.061
-0.074,0.051,-1.012,0.488,-1.526,0.977
-0.073,0.054,-1.005,-0.061,-1.953,0.916
-0.074,0.035,-0.997,-0.122,-2.502,0.305
-0.072,0.041,-0.994,-0.061,-2.930,0.610
-0.071,0.036,-0.994,-0.610,-2.747,0.610
-0.071,0.045,-0.997,-0.610,-2.502,0.793
-0.076,0.060,-0.994,-0.122,-2.319,1.221
-0.078,0.069,-0.996,0.183,-2.197,0.854
-0.078,0.071,-1.001,0.488,-1.770,-0.122
-0.076,0.055,-0.994,0.427,-2.319,-0.977
-0.072,0.042,-0.978,-0.549,-2.991,-1.282
-0.072,0.042,-0.974,-1.282,-2.808,-0.916
-0.072,0.059,-0.964,-0.732,-2.380,-0.244
-0.073,0.049,-0.966,-0.122,-1.404,-0.549
-0.067,0.057,-0.989,0.000,-0.732,-0.427
-0.065,0.062,-1.002,-0.244,-0.732,-0.244
-0.069,0.062,-0.992,0.427,-1.221,-0.671
-0.069,0.057,-0.988,1.404,-0.916,-0.916
-0.064,0.048,-0.993,1.587,0.427,-1.343
-0.067,0.038,-1.006,0.977,1.526,-1.160
-0.066,0.033,-1.016,0.549,1.892,-0.854
-0.067,0.035,-1.013,0.305,1.465,-0.122
-0.066,0.049,-1.013,0.366,0.793,0.549
-0.067,0.062,-1.018,-0.183,0.305,0.854
-0.951,0.400,-1.651,59.204,480.957,-33.936
-0.975,0.401,-2.086,23.682,467.712,-47.119
-1.002,0.224,-2.384,-9.216,436.401,-65.613
-0.920,0.007,-2.475,-34.180,390.320,-79.102
-0.821,-0.115,-2.465,-43.396,348.938,-80.505
-0.756,-0.256,-2.507,-38.696,316.223,-75.928
-0.670,-0.460,-2.526,-30.579,283.997,-68.970
-0.632,-0.583,-2.471,-14.099,247.742,-54.871
-0.591,-0.552,-2.389,1.038,209.534,-33.936
-0.522,-0.413,-2.301,0.305,173.584,-12.207
-0.480,-0.310,-2.319,-7.751,146.790,1.526
-0.432,-0.214,-2.378,-13.489,122.803,11.414
-0.380,-0.129,-2.290,-11.597,93.933,18.677
-0.343,-0.076,-2.036,-2.808,64.453,23.376
-0.358,-0.014,-1.743,13.611,44.373,26.123
-0.317,0.036,-1.551,26.917,33.691,27.161
-0.278,0.042,-1.403,31.494,28.625,25.818
-0.264,0.063,-1.306,32.593,25.757,24.292
-0.278,0.127,-1.286,33.997,24.902,23.621
-0.271,0.172,-1.267,31.494,22.583,21.301
-0.265,0.160,-1.240,26.123,17.517,16.357
-0.251,0.130,-1.245,19.287,12.634,11.169
-0.239,0.099,-1.240,11.902,6.714,7.507
-0.242,0.072,-1.190,7.629,-0.122,4.761
-0.228,0.063,-1.142,5.554,-4.517,3.235
-0.222,0.033,-1.118,5.310,-5.737,2.258
-0.221,0.005,-1.113,5.920,-5.859,1.221
-0.213,0.002,-1.062,5.005,-8.057,1.892
-0.201,0.026,-1.056,2.502,-7.263,3.052
-0.191,0.011,-1.065,-0.366,-6.714,2.014
-0.183,-0.003,-1.061,-5.432,-8.850,0.793
-0.162,-0.002,-1.076,-14.404,-11.780,0.122
-0.149,-0.039,-1.076,-23.621,-15.137,-1.465
-0.145,-0.076,-1.097,-26.917,-17.700,-2.441
-0.135,-0.079,-1.064,-25.574,-22.583,-2.197
-0.146,-0.064,-0.933,-19.226,-26.550,-1.770
-0.131,-0.055,-0.930,-10.254,-18.982,-1.892
-0.112,-0.077,-0.967,-2.136,-11.230,-3.357
-0.103,-0.114,-0.957,0.916,-8.667,-4.272
-0.093,-0.133,-0.941,1.221,-8.179,-3.906
-0.088,-0.134,-0.950,-0.061,-6.653,-2.930
-0.073,-0.148,-0.996,-2.075,-4.272,-1.526
-0.074,-0.154,-0.963,-2.869,-6.470,0.977
-0.078,-0.114,-0.927,-2.625,-7.202,4.883
-0.077,-0.080,-0.929,-2.808,-5.432,7.080
-0.078,-0.085,-0.937,-4.456,-4.028,7.324
-0.086,-0.070,-0.920,-6.592,-4.333,7.996
-0.084,-0.027,-0.906,-6.836,-4.272,9.399
-0.094,-0.005,-0.943,-6.775,-1.465,8.850
-0.094,-0.009,-0.968,-7.690,-0.305,7.019
-0.100,-0.003,-1.000,-6.409,-0.183,5.615
-0.105,-0.019,-0.991,-4.211,-1.709,3.418
-0.102,-0.038,-0.976,-2.380,-2.808,1.648
-0.094,-0.037,-0.985,-0.854,-0.122,1.343
-0.093,-0.060,-1.031,-1.465,3.845,1.099
-0.088,-0.073,-1.048,-1.465,4.639,1.099
-0.092,-0.063,-1.046,-1.587,3.723,2.319
-0.097,-0.050,-1.029,-0.671,2.991,3.052
-0.096,-0.047,-1.027,0.732,2.930,3.296
-0.098,-0.044,-1.043,1.404,3.540,2.869
-0.101,-0.022,-1.051,2.258,3.540,3.052
-0.101,-0.013,-1.039,3.235,2.380,2.686
-0.104,-0.012,-1.039,2.869,2.075,1.648
-0.107,-0.015,-1.048,1.709,2.502,0.916
-0.109,-0.010,-1.062,2.014,2.563,0.549
-0.109,-0.021,-1.036,1.770,1.343,-0.183
-0.111,-0.005,-1.028,1.953,1.099,-0.488
-0.104,-0.034,-1.019,1.038,1.465,-1.404
-0.097,-0.056,-1.026,2.197,1.587,-2.197
-0.096,-0.051,-1.032,1.770,1.953,-0.793
-0.095,-0.043,-1.055,1.221,1.770,-0.244
-0.097,-0.037,-1.054,0.427,0.244,-0.122
-0.103,-0.023,-1.032,-0.305,-0.671,0.122
-0.104,-0.005,-1.042,1.343,0.061,0.366
-0.104,-0.010,-1.037,1.343,0.366,-0.732
-0.107,-0.029,-1.008,1.709,-0.366,-1.648
-0.108,-0.031,-1.009,2.075,0.305,-1.648
-0.105,-0.056,-1.013,-0.122,0.854,-2.075
-0.105,-0.071,-1.017,-1.465,0.977,-1.831
-0.107,-0.058,-1.032,-0.366,0.916,-0.671
-0.107,-0.049,-1.028,-0.610,-0.061,0.244
-0.106,-0.032,-1.031,-1.831,-1.038,0.427
-0.106,-0.034,-1.015,-3.479,-1.282,0.000
-0.109,-0.034,-1.018,-2.686,-0.427,-0.244
-0.109,-0.032,-1.020,0.122,0.549,-0.183
-0.109,-0.027,-1.003,0.916,0.305,-0.610
-0.106,-0.033,-1.010,0.671,0.854,-1.526
-0.105,-0.048,-1.018,-0.793,0.732,-2.502
-0.105,-0.068,-1.000,-1.770,-0.488,-2.869
-0.104,-0.067,-1.002,-1.465,-0.793,-2.563
-0.106,-0.059,-1.005,-1.892,-0.488,-1.831
-0.106,-0.065,-1.010,-1.953,-0.122,-1.343
-0.103,-0.066,-1.021,-1.648,-0.305,-1.160
-0.104,-0.050,-1.008,-2.502,-1.221,-0.549
-0.109,-0.051,-0.993,-2.319,-1.770,-0.793
-0.106,-0.042,-0.983,-0.183,-1.648,-1.282
-0.107,-0.040,-0.972,1.587,-1.160,-1.404
-0.104,-0.043,-0.984,2.869,-0.366,-2.136
-0.101,-0.068,-0.997,2.502,0.183,-2.563
-0.103,-0.084,-1.005,2.869,-0.122,-2.502
-0.107,-0.068,-1.001,2.808,-0.793,-1.099
-0.107,-0.066,-1.001,2.747,-0.977,-0.549
-0.104,-0.072,-1.008,2.991,-0.366,-0.671
-0.097,-0.068,-1.021,3.174,0.000,-0.366
-0.099,-0.064,-1.013,2.258,-0.122,0.061
-0.095,-0.076,-1.005,2.258,-0.488,0.183
-0.096,-0.070,-1.013,2.686,-0.427,0.793
-0.095,-0.062,-1.003,2.319,-0.916,1.526
-0.098,-0.053,-1.000,2.197,-1.465,1.587
-0.093,-0.060,-0.999,1.526,-1.831,1.465
-0.094,-0.070,-1.005,-0.427,-2.136,1.221
-0.096,-0.062,-1.005,-1.709,-2.319,2.075
-0.096,-0.059,-0.997,-1.038,-3.052,2.563
-0.097,-0.034,-0.997,-0.671,-2.441,3.235
-0.098,-0.018,-1.021,-1.953,-0.916,2.991
-0.099,-0.026,-1.019,-3.174,-1.038,1.709
-0.097,-0.023,-1.009,-4.089,-1.343,0.916
-0.099,-0.023,-1.001,-3.235,-0.854,0.122
-0.096,-0.043,-1.016,-1.770,0.610,-0.916
-0.556,-0.264,-2.141,136.292,349.915,-70.374
-0.392,-0.230,-2.443,109.863,323.669,-57.861
-0.298,-0.332,-2.630,52.734,280.579,-48.523
-0.244,-0.488,-2.547,-13.062,219.971,-42.603
-0.268,-0.490,-2.256,-59.753,162.659,-28.076
-0.304,-0.492,-1.935,-82.886,124.512,-14.343
-0.356,-0.419,-1.734,-77.576,106.262,-1.831
-0.377,-0.249,-1.659,-53.955,101.440,11.902
-0.372,-0.064,-1.658,-24.109,100.037,20.752
-0.341,0.068,-1.657,1.038,96.619,20.935
-0.340,0.076,-1.721,11.658,95.093,14.038
-0.339,0.007,-1.776,18.433,90.332,5.920
-0.305,-0.035,-1.775,26.489,78.735,2.686
-0.329,-0.100,-1.726,33.936,64.209,1.770
-0.297,-0.110,-1.725,32.959,50.781,3.784
-0.282,-0.103,-1.728,25.208,36.316,7.690
-0.259,-0.053,-1.666,17.700,17.944,11.597
-0.252,-0.009,-1.487,9.583,-0.549,14.282
-0.240,0.019,-1.381,5.920,-12.573,14.282
-0.219,0.051,-1.192,2.258,-20.020,13.184
-0.196,0.073,-1.159,-0.610,-14.526,11.414
-0.179,0.035,-1.138,-1.465,-7.935,6.592
-0.156,0.036,-1.093,-3.784,-6.958,3.296
-0.136,-0.003,-1.055,-4.211,-5.432,-0.122
-0.101,-0.055,-1.040,-2.808,-3.235,-3.235
-0.078,-0.100,-1.041,-3.357,-0.427,-4.700
-0.074,-0.162,-1.043,-1.221,1.526,-5.371
-0.078,-0.161,-1.057,3.418,3.235,-3.418
-0.070,-0.151,-1.088,5.493,4.333,-1.526
-0.067,-0.173,-1.100,2.258,3.540,-0.732
-0.066,-0.191,-1.099,0.122,1.648,0.671
-0.061,-0.194,-1.087,0.305,-0.916,3.235
-0.063,-0.191,-1.050,0.671,-3.052,6.104
-0.067,-0.159,-1.035,0.183,-3.540,9.460
-0.067,-0.126,-1.028,0.122,-3.113,12.024
-0.078,-0.092,-1.036,0.183,-2.930,13.611
-0.092,-0.048,-1.018,-1.038,-4.150,14.526
-0.105,-0.033,-0.992,-0.854,-4.822,13.611
-0.112,-0.001,-0.990,2.197,-3.174,12.573
-0.119,-0.017,-0.969,5.859,-2.197,10.376
-0.118,-0.005,-0.970,8.118,-1.099,8.667
-0.108,0.000,-0.992,7.935,0.061,7.080
-0.097,-0.021,-1.011,5.920,0.183,4.883
-0.105,-0.022,-0.981,4.700,-0.732,4.211
-0.099,-0.011,-0.962,4.395,-0.610,3.906
-0.092,-0.058,-0.959,3.113,0.244,2.441
-0.086,-0.059,-0.978,2.075,0.977,2.808
-0.081,-0.034,-0.996,1.160,1.099,4.272
-0.075,-0.032,-1.003,0.244,0.244,3.723
-0.072,-0.048,-0.990,-0.977,-1.160,2.747
-0.079,-0.035,-0.963,-0.732,-1.648,2.991
-0.086,-0.014,-0.946,1.831,0.427,3.540
-0.080,-0.036,-0.969,5.127,3.784,2.686
-0.078,-0.033,-1.001,7.324,5.859,1.892
-0.076,-0.020,-1.014,7.629,6.104,2.075
-0.078,-0.034,-1.028,7.202,5.066,0.977
-0.078,-0.050,-1.017,5.676,3.601,0.427
-0.079,-0.068,-1.015,3.906,2.869,0.244
-0.083,-0.080,-1.005,2.197,2.380,0.732
-0.085,-0.086,-1.007,1.160,2.441,1.831
-0.084,-0.086,-1.017,2.075,2.441,3.113
-0.091,-0.040,-1.035,2.930,2.441,5.310
-0.090,-0.016,-1.031,2.136,1.404,5.737
-0.094,-0.002,-1.024,1.648,0.732,5.127
-0.101,-0.002,-1.001,-0.183,0.244,3.601
-0.096,-0.021,-0.982,-2.136,0.610,2.014
-0.096,-0.049,-1.000,-2.319,2.502,0.854
-0.100,-0.034,-1.035,0.916,4.578,1.770
-0.099,-0.029,-1.035,3.906,3.967,2.136
-0.091,-0.032,-1.026,5.066,2.930,1.953
-0.092,-0.042,-1.026,3.723,2.258,1.282
-0.094,-0.030,-1.029,2.380,2.014,1.587
-0.093,-0.032,-1.035,0.549,1.587,1.526
-0.093,-0.049,-1.027,-0.671,1.099,0.732
-0.097,-0.047,-1.031,0.305,0.916,0.854
-0.094,-0.053,-1.040,2.563,1.343,1.282
-0.091,-0.060,-1.028,2.136,0.366,1.099
-0.089,-0.075,-1.021,0.000,-0.305,1.160
-0.089,-0.080,-1.012,-1.160,-1.038,1.831
-0.086,-0.063,-1.012,-2.869,-1.587,3.113
-0.091,-0.034,-1.033,-5.188,-1.709,3.723
-0.097,-0.025,-1.032,-6.958,-2.686,3.479
-0.106,-0.022,-0.997,-6.714,-3.845,2.441
-0.102,-0.028,-0.995,-5.554,-2.808,1.404
-0.107,-0.037,-0.992,-4.944,-1.160,0.610
-0.099,-0.045,-0.980,-2.991,0.244,0.122
-0.091,-0.061,-0.998,0.977,1.831,-0.122
-0.092,-0.058,-1.004,1.770,2.747,0.549
-0.090,-0.046,-1.020,1.526,2.747,1.099
-0.086,-0.053,-1.034,-0.183,2.625,0.854
-0.095,-0.060,-1.028,-0.977,1.831,0.732
-0.096,-0.054,-1.019,-0.488,1.038,0.793
-0.097,-0.060,-1.003,-0.305,0.549,0.549
-0.094,-0.066,-1.009,-0.061,0.916,0.427
-0.092,-0.057,-1.004,-1.282,0.671,0.610
-0.095,-0.052,-0.994,-2.686,0.122,0.916
-0.097,-0.047,-0.997,-2.625,0.610,0.916
-0.092,-0.053,-0.996,-2.197,0.793,0.488
-0.092,-0.044,-1.001,-2.014,1.099,0.549
-0.092,-0.065,-1.000,-1.160,1.282,0.061
-0.090,-0.047,-1.017,0.793,1.831,0.366
-0.090,-0.052,-1.012,0.671,1.892,0.305
-0.092,-0.062,-1.004,0.244,1.526,-0.427
-0.095,-0.071,-1.008,0.244,1.648,-0.488
-0.098,-0.071,-1.010,0.916,1.526,0.000
-0.098,-0.072,-1.004,0.610,1.221,0.427
-0.096,-0.066,-1.011,-0.305,1.282,0.793
-0.095,-0.069,-1.017,-1.343,1.343,1.099
-0.096,-0.054,-1.016,-1.648,0.671,1.770
-0.099,-0.028,-1.013,-2.441,0.427,2.014
-0.105,-0.025,-1.008,-3.723,0.610,1.221
-0.104,-0.043,-1.015,-3.906,0.732,-0.244
-0.105,-0.043,-1.020,-2.686,1.038,-0.732
-0.101,-0.063,-1.017,-0.244,0.793,-1.221
-0.095,-0.082,-1.017,1.770,0.732,-1.282
-0.093,-0.067,-1.014,2.686,0.916,-0.305
-0.092,-0.056,-1.022,1.526,0.977,0.305
-0.096,-0.067,-1.020,0.183,0.488,-0.305
-0.094,-0.061,-0.993,-1.648,-0.488,0.122
-1.380,0.302,-2.177,74.097,511.597,-2.258
-1.279,0.264,-2.866,65.613,490.356,-8.850
-1.120,0.198,-3.300,42.786,432.800,-11.536
-0.975,-0.012,-3.547,11.108,359.985,-15.869
-0.817,-0.273,-3.508,-27.954,278.809,-14.832
-0.724,-0.395,-3.263,-63.232,201.843,-3.418
-0.662,-0.307,-2.848,-83.008,136.658,14.221
-0.633,-0.132,-2.525,-89.539,93.750,32.776
-0.618,0.045,-2.253,-76.233,66.223,43.091
-0.569,0.250,-2.029,-52.124,48.584,47.974
-0.494,0.332,-1.824,-28.625,36.621,43.091
-0.416,0.310,-1.663,-12.817,28.564,32.898
-0.355,0.277,-1.591,-6.409,23.987,24.170
-0.345,0.256,-1.545,-3.296,18.982,17.883
-0.338,0.229,-1.479,-0.793,10.864,12.634
-0.314,0.199,-1.410,2.258,3.296,7.446
-0.286,0.149,-1.344,3.662,-1.709,2.502
-0.255,0.102,-1.290,1.648,-4.822,-1.770
-0.226,0.039,-1.179,-3.296,-8.484,-4.089
-0.184,-0.012,-1.078,-7.690,-11.414,-5.615
-0.127,-0.047,-1.041,-11.414,-9.949,-6.775
-0.081,-0.096,-1.016,-17.334,-7.141,-7.507
-0.069,-0.147,-1.004,-15.564,-4.517,-6.958
-0.062,-0.126,-0.997,-8.179,-1.892,-3.784
-0.056,-0.106,-0.966,-2.930,-0.061,-1.465
-0.070,-0.106,-0.993,0.244,4.822,-0.427
-0.070,-0.056,-1.100,2.930,10.498,1.160
-0.071,-0.012,-1.186,3.662,11.475,2.136
-0.072,-0.058,-1.195,2.197,8.118,-0.427
-0.070,-0.089,-1.187,2.319,4.272,-1.526
-0.071,-0.100,-1.154,1.160,0.854,-0.732
-0.068,-0.106,-1.122,-1.709,-2.197,0.305
-0.067,-0.094,-1.092,-3.662,-3.784,2.319
-0.067,-0.055,-1.100,-1.953,-3.845,4.883
-0.064,-0.016,-1.082,0.366,-5.066,6.470
-0.064,0.005,-1.063,0.732,-6.104,6.165
-0.071,0.005,-1.063,0.977,-5.737,5.249
-0.074,0.011,-1.045,2.930,-5.554,4.700
-0.071,0.013,-1.000,4.028,-5.798,3.845
-0.064,0.006,-0.982,4.700,-4.761,2.563
-0.063,-0.026,-0.960,4.578,-2.930,1.587
-0.062,-0.016,-0.963,5.493,-1.526,2.502
-0.062,0.010,-0.983,4.761,0.061,3.723
-0.064,0.009,-0.986,2.502,-0.244,3.052
-0.071,0.015,-0.984,-1.160,-0.916,2.686
-0.075,0.010,-0.990,-4.944,-1.526,2.136
-0.079,0.005,-1.006,-7.141,-1.587,1.465
-0.081,-0.015,-1.030,-6.836,-1.892,1.038
-0.083,0.013,-1.022,-5.310,-2.563,1.587
-0.090,0.021,-1.001,-3.052,-2.319,1.404
-0.088,-0.001,-0.990,1.526,-0.732,-0.122
-0.083,-0.002,-0.985,5.676,0.732,-0.732
-0.074,-0.021,-0.999,7.507,1.892,-1.526
-0.070,-0.046,-1.015,7.935,2.075,-1.953
-0.073,-0.033,-1.028,7.568,0.854,-0.977
-0.077,-0.030,-1.017,4.578,-1.343,-0.488
-0.080,-0.038,-1.009,0.732,-2.930,-0.610
-0.080,-0.028,-1.014,-1.831,-3.479,-0.122
-0.081,-0.041,-0.993,-3.967,-4.333,-0.061
-0.076,-0.058,-0.973,-4.395,-4.700,-0.183
-0.074,-0.030,-0.989,-3.723,-3.601,1.282
-0.078,-0.024,-0.975,-3.967,-3.235,1.831
-0.077,-0.012,-0.964,-2.930,-3.113,1.587
-0.079,-0.003,-0.978,-2.197,-0.916,1.465
-0.078,-0.015,-0.988,-2.563,0.488,0.061
-0.079,-0.026,-1.004,-3.296,1.770,-0.854
-0.077,-0.046,-1.023,-2.869,2.441,-1.587
-0.075,-0.059,-1.030,-1.709,2.258,-1.465
-0.068,-0.061,-1.026,-0.244,1.648,-0.916
-0.076,-0.098,-0.988,-0.854,1.465,-0.977
-0.071,-0.073,-1.071,-2.625,4.028,0.610
-0.068,-0.070,-1.066,-3.235,1.587,1.526
-0.070,-0.075,-1.036,-4.089,-2.075,1.953
-0.076,-0.051,-1.029,-3.784,-2.563,3.113
-0.080,-0.050,-1.015,-3.479,-2.808,3.296
-0.078,-0.044,-1.012,-1.892,-2.625,3.052
-0.082,-0.036,-1.007,1.038,-2.441,2.930
-0.079,-0.024,-1.003,2.319,-1.770,2.563
-0.078,-0.033,-1.015,1.709,-0.610,1.404
-0.074,-0.033,-1.009,0.671,-0.610,0.671
-0.073,-0.032,-1.000,-1.465,-0.671,0.549
-0.075,-0.043,-1.006,-1.343,0.183,0.366
-0.070,-0.051,-1.008,-0.183,0.610,0.305
-0.068,-0.057,-1.022,-0.183,0.671,0.488
-0.064,-0.055,-1.048,-1.465,0.793,0.977
-0.065,-0.061,-1.031,-3.418,-0.916,1.282
-0.067,-0.048,-1.022,-3.906,-2.075,2.014
-0.064,-0.032,-1.016,-4.944,-2.136,2.441
-0.068,-0.036,-1.005,-5.615,-2.014,2.014
-0.072,-0.034,-1.002,-4.761,-1.343,1.892
-0.072,-0.015,-1.014,-2.808,-0.610,1.953
-0.072,-0.028,-1.007,-2.625,-0.732,1.038
-0.072,-0.038,-1.008,-1.648,-0.793,0.244
-0.070,-0.047,-1.015,-1.404,0.061,0.183
-0.071,-0.067,-1.024,-0.427,-0.122,-0.305
-0.068,-0.058,-1.024,0.549,-0.366,0.366
-0.068,-0.060,-1.015,0.366,-1.099,1.404
-0.072,-0.039,-1.022,0.732,-1.465,2.197
-0.072,-0.021,-1.014,-0.061,-2.075,2.502
-0.075,-0.024,-1.013,-0.793,-2.197,1.709
-0.074,-0.028,-1.020,-1.038,-1.953,1.221
-0.076,-0.026,-1.011,-0.732,-1.587,1.099
-0.075,-0.009,-1.030,0.366,-1.160,1.099
-0.076,-0.017,-1.010,-0.061,-1.831,0.305
-0.070,-0.053,-0.994,-0.305,-2.319,-0.977
-0.061,-0.058,-1.009,0.977,-1.831,-0.671
-0.059,-0.048,-1.008,-0.122,-2.136,0.305
-0.057,-0.057,-1.000,-1.160,-3.052,0.061
-0.056,-0.058,-1.006,-2.136,-3.418,0.366
-0.057,-0.048,-1.011,-3.845,-3.479,1.526
-0.060,-0.055,-1.013,-4.944,-3.479,1.770
-0.067,-0.050,-1.021,-3.601,-3.235,2.258
-0.065,-0.051,-1.015,-2.075,-3.418,2.502
-0.063,-0.058,-1.015,-1.099,-3.235,2.686
-0.055,-0.064,-1.026,-1.465,-2.930,3.113
-0.062,-0.043,-1.047,-2.014,-2.686,3.784
-0.066,-0.027,-1.024,-1.282,-3.906,4.028
-0.069,-0.026,-0.974,1.526,-5.249,3.662
-0.061,-0.008,-0.972,2.869,-3.784,3.418
-0.901,0.401,-2.225,-19.409,394.409,18.005
-0.852,0.509,-2.626,-21.057,373.108,7.996
-0.743,0.312,-2.801,-51.697,327.454,-11.719
-0.612,0.278,-2.969,-84.412,278.931,-22.034
-0.534,0.156,-3.021,-107.056,229.004,-30.640
-0.463,0.049,-2.813,-106.812,173.096,-34.790
-0.435,-0.063,-2.510,-84.778,126.892,-32.288
-0.391,-0.143,-2.266,-53.467,96.863,-24.292
-0.358,-0.065,-2.053,-27.649,74.646,-10.437
-0.330,0.012,-1.912,-16.052,57.983,-0.488
-0.312,0.024,-1.784,-11.841,45.044,3.357
-0.320,0.028,-1.688,-10.681,34.973,5.676
-0.293,0.031,-1.608,-10.498,26.978,7.385
-0.266,0.035,-1.547,-10.681,19.287,8.118
-0.246,0.018,-1.473,-8.118,11.902,8.362
-0.233,0.009,-1.347,-3.174,2.991,8.179
-0.233,-0.006,-1.253,-0.854,-3.723,8.301
-0.215,0.023,-1.134,0.305,-7.263,8.972
-0.211,0.070,-1.134,2.258,-6.226,9.155
-0.195,0.119,-1.120,4.333,-5.188,6.592
-0.176,0.079,-1.063,6.165,-7.202,1.282
-0.155,-0.009,-1.019,5.432,-8.850,-3.967
-0.152,-0.089,-0.974,1.587,-8.911,-5.798
-0.147,-0.106,-0.940,-0.183,-7.568,-4.517
-0.140,-0.083,-0.981,-2.075,-3.113,-2.991
-0.127,-0.090,-1.071,-5.371,1.099,-2.930
-0.124,-0.101,-1.100,-8.850,0.977,-2.625
-0.125,-0.114,-1.086,-9.766,-1.221,-1.709
-0.120,-0.138,-1.077,-10.132,-2.014,-0.061
-0.112,-0.119,-1.098,-8.667,-1.953,2.930
-0.116,-0.054,-1.098,-5.493,-2.930,6.042
-0.130,-0.017,-1.073,-0.122,-4.395,7.568
-0.139,0.030,-1.048,6.653,-4.456,7.812
-0.135,0.067,-1.031,10.864,-4.028,6.531
-0.132,0.039,-1.031,10.681,-3.174,2.747
-0.116,-0.001,-1.050,8.484,-2.625,-0.244
-0.109,-0.025,-1.055,6.531,-3.601,-0.916
-0.103,-0.026,-1.040,5.188,-5.371,-0.122
-0.104,-0.035,-0.999,3.662,-6.836,0.916
-0.103,-0.010,-1.004,2.014,-7.019,2.502
-0.094,0.023,-1.005,-1.648,-6.775,3.174
-0.086,0.028,-1.015,-5.066,-7.019,2.014
-0.088,0.020,-0.995,-6.042,-7.263,0.427
-0.087,0.028,-0.973,-4.028,-7.324,-0.366
-0.084,0.011,-0.953,-1.099,-6.226,-1.648
-0.074,0.002,-0.943,1.831,-4.761,-2.075
-0.079,0.012,-0.958,3.296,-3.052,-2.014
-0.081,-0.002,-0.964,3.723,-1.587,-2.441
-0.082,-0.012,-0.972,3.052,-0.916,-2.930
-0.083,-0.023,-0.996,1.587,0.244,-2.869
-0.088,-0.024,-1.005,0.854,0.549,-2.441
-0.087,-0.023,-0.998,0.366,-0.305,-1.465
-0.089,-0.008,-1.005,-1.099,-0.549,-0.549
-0.090,-0.005,-1.018,-2.441,-0.366,-0.366
-0.094,0.003,-1.025,-2.625,-0.916,-0.305
-0.094,0.014,-1.007,-2.747,-2.075,-0.183
-0.095,-0.009,-0.994,-2.197,-2.625,-0.977
-0.095,-0.021,-1.012,-1.831,-1.587,-1.099
-0.104,0.002,-0.999,-1.099,-2.014,-0.305
-0.103,-0.004,-0.995,0.061,-1.892,-0.610
-0.107,0.000,-1.006,0.183,-0.977,-0.671
-0.106,0.007,-1.011,-0.488,-0.732,-0.793
-0.106,0.005,-1.021,-2.014,-0.732,-1.526
-0.110,-0.003,-1.009,-3.479,-0.977,-2.380
-0.108,-0.038,-1.001,-1.770,-1.038,-2.808
-0.105,-0.035,-1.016,0.793,0.122,-2.075
-0.097,-0.041,-1.036,2.258,0.610,-1.343
-0.094,-0.042,-1.036,2.563,0.122,-1.038
-0.096,-0.037,-1.021,2.197,-1.038,-0.671
-0.095,-0.051,-0.997,1.709,-1.709,-0.671
-0.094,-0.049,-1.001,1.892,-1.587,-0.244
-0.093,-0.013,-1.011,0.671,-1.221,0.793
-0.090,-0.024,-1.003,-1.404,-1.404,0.061
-0.094,-0.029,-1.017,-2.197,-0.916,-0.488
-0.099,-0.025,-0.999,-1.587,-1.099,-0.244
-0.094,-0.054,-0.992,0.183,-1.282,-0.793
-0.093,-0.029,-1.013,1.709,-0.366,0.000
-0.090,-0.017,-1.012,3.052,-0.549,0.366
-0.088,-0.026,-1.006,3.235,-0.977,-0.366
-0.090,-0.029,-0.998,2.441,-1.465,-0.671
-0.094,-0.046,-0.982,0.549,-1.404,-0.793
-0.091,-0.049,-0.999,-0.977,-0.916,-0.488
-0.090,-0.031,-1.027,-2.625,-0.366,0.183
-0.095,-0.032,-1.023,-2.502,-1.099,0.183
-0.098,-0.025,-1.012,-0.122,-1.709,0.732
-0.097,-0.007,-1.009,1.709,-1.892,0.854
-0.090,-0.012,-1.017,1.404,-1.831,0.366
-0.086,-0.011,-1.026,0.061,-2.258,0.183
-0.085,0.001,-1.030,-0.183,-3.296,0.183
-0.084,0.005,-1.022,-0.427,-4.272,-0.305
-0.090,-0.011,-1.013,-0.488,-4.700,-1.038
-0.094,-0.004,-0.998,1.160,-4.578,-1.099
-0.093,-0.024,-0.981,2.014,-3.784,-1.282
-0.086,-0.026,-1.014,1.831,-1.587,-1.465
-0.080,-0.021,-1.026,1.648,-0.549,-0.854
-0.079,-0.040,-1.011,1.709,-1.160,-0.732
-0.079,-0.032,-1.008,1.892,-1.160,0.061
-0.079,-0.010,-1.007,1.709,-1.099,1.343
-0.080,0.017,-1.021,1.099,-0.793,1.770
-0.080,0.034,-1.022,1.038,-1.038,1.282
-0.080,0.024,-1.024,0.916,-1.160,-0.183
-0.076,0.012,-1.030,-0.061,-1.282,-1.465
-0.075,-0.022,-1.017,-0.244,-1.953,-1.953
-0.073,-0.022,-1.015,0.671,-2.380,-1.282
-0.077,-0.005,-1.014,0.916,-2.319,0.000
-0.075,-0.009,-1.015,0.427,-2.625,-0.122
-0.079,0.000,-1.007,-0.122,-2.625,0.244
-0.083,-0.001,-0.987,-0.793,-2.625,0.000
-0.078,-0.006,-0.988,0.610,-1.770,-0.183
-0.074,-0.007,-0.984,1.282,-1.404,0.427
-0.072,-0.014,-0.996,0.671,-0.793,0.549
-0.067,-0.005,-1.015,-0.061,-0.305,0.854
-0.066,0.012,-1.018,-0.610,-0.793,1.038
-0.072,0.005,-1.011,-1.526,-1.648,0.122
-0.075,-0.005,-1.006,-1.343,-1.770,-0.488
-0.076,-0.025,-1.005,-0.549,-1.465,-0.549
-0.076,-0.019,-1.020,0.488,-1.160,-0.061
-0.075,0.003,-1.025,0.061,-1.343,0.610
-0.076,0.008,-1.022,-0.427,-2.258,0.183
-0.732,0.449,-1.725,-29.602,432.800,2.197
-0.725,0.165,-1.795,-29.297,402.588,-15.869
-0.765,-0.029,-1.922,-20.386,382.080,-21.973
-0.791,-0.069,-2.135,-6.714,366.211,-17.090
-0.706,-0.031,-2.374,5.493,339.417,-8.972
-0.674,-0.031,-2.552,-0.732,302.734,-4.517
-0.599,-0.027,-2.599,-21.729,256.104,-1.831
-0.578,-0.045,-2.635,-45.349,214.966,1.038
-0.523,-0.060,-2.575,-64.026,172.974,4.944
-0.486,-0.017,-2.398,-70.007,133.911,11.108
-0.464,0.025,-2.226,-61.096,105.164,17.639
-0.441,0.120,-2.053,-40.771,83.862,24.048
-0.407,0.252,-1.874,-21.851,67.444,28.870
-0.386,0.308,-1.711,-9.338,56.763,27.222
-0.367,0.305,-1.635,-0.488,52.185,22.156
-0.334,0.284,-1.577,2.808,47.424,16.907
-0.334,0.217,-1.591,0.977,43.091,12.390
-0.334,0.171,-1.588,-2.625,37.109,9.949
-0.316,0.177,-1.596,-2.808,28.748,10.437
-0.299,0.182,-1.583,-0.427,19.958,10.376
-0.293,0.181,-1.491,4.395,8.972,9.705
-0.282,0.211,-1.369,8.545,-0.854,8.667
-0.253,0.196,-1.264,8.606,-7.385,5.188
-0.231,0.172,-1.203,5.188,-9.338,0.305
-0.211,0.167,-1.108,1.526,-11.169,-2.991
-0.173,0.126,-1.039,-1.953,-11.963,-7.263
-0.145,0.092,-1.053,-5.615,-8.240,-10.254
-0.131,0.097,-1.064,-8.362,-5.432,-10.986
-0.120,0.051,-1.033,-11.963,-5.005,-12.817
-0.105,-0.044,-1.052,-16.602,-2.075,-15.198
-0.093,-0.109,-1.125,-20.447,1.160,-14.832
-0.086,-0.143,-1.150,-22.339,0.732,-11.536
-0.081,-0.161,-1.152,-17.029,-1.526,-7.690
-0.082,-0.104,-1.134,-10.376,-3.113,-2.625
-0.081,-0.061,-1.109,-4.089,-4.456,0.488
-0.078,-0.028,-1.083,0.549,-5.615,2.197
-0.082,-0.006,-1.057,3.113,-6.409,2.380
-0.077,-0.007,-1.017,5.371,-7.202,2.258
-0.082,0.020,-1.019,6.775,-6.531,2.625
-0.090,0.027,-1.004,7.751,-5.859,2.258
-0.090,0.029,-0.965,6.531,-6.226,1.221
-0.083,0.025,-0.977,2.563,-4.700,0.305
-0.075,0.024,-1.023,-1.221,-2.625,-0.061
-0.077,0.020,-1.031,-2.502,-2.991,0.061
-0.077,0.023,-1.015,-1.465,-4.517,1.221
-0.074,0.028,-0.998,-0.366,-5.127,2.258
-0.078,0.025,-0.977,0.122,-5.249,2.930
-0.076,0.038,-0.985,-1.221,-4.578,3.418
-0.076,0.031,-0.978,-2.441,-4.822,3.174
-0.072,0.042,-0.984,-3.357,-4.822,2.930
-0.071,0.064,-0.982,-5.615,-4.700,2.930
-0.078,0.070,-0.983,-6.042,-4.089,2.136
-0.084,0.062,-0.944,-3.540,-3.723,1.343
-0.078,0.071,-0.949,2.197,-1.770,1.160
-0.074,0.082,-0.995,5.615,1.282,1.038
-0.074,0.049,-0.995,5.981,1.160,-0.732
-0.078,0.013,-0.984,5.188,0.244,-1.343
-0.075,-0.007,-0.997,3.540,0.244,-0.610
-0.078,0.015,-1.017,1.465,0.305,1.526
-0.080,0.052,-1.022,0.000,-1.099,3.235
-0.084,0.057,-0.997,-2.014,-2.808,3.540
-0.095,0.070,-0.975,-1.953,-3.479,3.479
-0.089,0.121,-0.983,-0.977,-2.075,4.028
-0.091,0.076,-0.971,-2.258,-1.526,1.282
-0.087,0.064,-0.977,-3.723,-0.732,-0.244
-0.084,0.052,-0.985,-3.845,0.183,-0.183
-0.082,0.033,-1.004,-2.625,1.038,-0.549
-0.074,0.055,-1.027,-2.319,1.160,-0.305
-0.078,0.043,-1.017,-3.723,0.061,-0.549
-0.082,0.020,-1.001,-3.235,-0.793,-1.343
-0.084,0.034,-0.994,-2.380,-0.427,-0.061
-0.083,0.031,-1.008,-1.892,0.610,0.488
-0.081,0.053,-1.028,-0.916,0.854,0.793
-0.089,0.067,-1.022,-1.709,0.427,0.427
-0.090,0.053,-1.008,-1.587,-0.244,-1.343
-0.089,0.027,-0.989,-0.549,-0.366,-2.502
-0.087,0.041,-0.998,0.549,0.305,-2.014
-0.089,0.033,-0.997,0.610,0.854,-2.197
-0.085,0.026,-0.998,1.343,1.099,-2.563
-0.082,0.028,-1.010,1.099,1.648,-2.197
-0.081,0.023,-1.023,0.000,1.892,-2.380
-0.082,0.013,-1.040,-1.648,1.709,-2.625
-0.078,-0.004,-1.042,-3.418,1.160,-2.686
-0.083,-0.021,-1.033,-3.418,0.000,-2.197
-0.082,-0.001,-1.032,-2.563,-0.549,-0.549
-0.083,0.001,-1.011,-1.465,-1.404,0.244
-0.083,0.012,-0.998,0.488,-1.587,1.160
-0.080,0.032,-0.984,1.770,-1.160,1.831
-0.071,0.041,-0.999,1.099,-0.122,1.465
-0.070,0.034,-1.017,-0.977,0.610,0.061
-0.074,0.012,-1.006,-2.136,0.305,-0.916
-0.081,-0.015,-0.998,-1.160,0.061,-1.343
-0.079,-0.003,-1.020,-0.122,0.732,-0.061
-0.079,0.001,-1.035,-0.671,0.916,1.099
-0.082,0.007,-1.030,-0.854,0.000,1.709
-0.080,0.030,-1.020,-1.221,-0.488,2.563
-0.082,0.026,-1.010,-1.526,-0.488,2.441
-0.081,0.009,-0.994,-1.465,-1.099,2.258
-0.084,0.047,-0.995,-0.549,-0.977,3.357
-0.087,0.073,-0.998,-1.465,-0.183,3.601
-0.085,0.067,-1.006,-2.380,0.061,1.282
-0.087,0.047,-1.016,-3.296,0.183,-0.305
-0.088,0.038,-1.003,-3.906,-0.427,-1.099
-0.081,0.034,-1.003,-3.418,-0.183,-1.526
-0.085,0.005,-0.997,-2.197,-0.183,-1.892
-0.079,0.014,-1.001,-0.183,0.061,-0.977
-0.077,0.011,-1.004,0.916,0.061,-0.122
-0.078,0.005,-1.015,1.221,0.122,-0.061
-0.081,0.019,-1.015,-0.061,-0.244,0.366
-0.078,0.016,-1.003,-1.282,-1.038,0.427
-0.081,0.025,-1.005,-1.831,-0.977,0.427
-0.084,0.026,-0.984,-1.282,-1.099,0.671
-0.080,0.030,-0.980,-0.061,-0.671,0.427
-0.074,0.047,-0.993,-0.244,0.366,0.427
-0.073,0.041,-0.999,-1.038,1.099,-0.427
-0.072,0.020,-0.998,-1.221,1.160,-1.221
-0.073,0.023,-1.012,-1.221,1.526,-0.916
-0.074,0.008,-1.016,-1.648,1.709,-0.854
-0.072,0.002,-1.030,-1.953,1.648,-0.671
-1.077,-0.179,-2.326,-77.393,434.814,-9.888
-1.047,-0.210,-2.795,-90.881,409.363,-12.817
-0.921,-0.076,-3.146,-91.370,366.394,-10.925
-0.794,-0.014,-3.293,-76.721,309.692,-12.451
-0.678,-0.070,-3.230,-55.725,247.314,-17.029
-0.584,-0.120,-3.011,-36.865,189.819,-14.404
-0.522,-0.127,-2.730,-22.217,143.005,-7.080
-0.458,-0.019,-2.453,-14.954,109.192,1.526
-0.401,0.088,-2.274,-10.254,85.144,6.531
-0.353,0.118,-2.128,-4.883,66.956,5.493
-0.294,0.130,-1.998,1.099,51.697,3.723
-0.237,0.141,-1.866,6.531,39.368,1.465
-0.212,0.077,-1.735,11.169,28.687,-2.441
-0.187,-0.007,-1.582,13.855,19.409,-5.920
-0.160,-0.062,-1.475,14.832,12.024,-6.775
-0.138,-0.057,-1.390,13.794,7.385,-4.639
-0.109,-0.028,-1.300,13.672,2.136,-3.357
-0.087,-0.046,-1.245,15.686,-1.404,-3.540
-0.073,-0.053,-1.193,15.808,-3.906,-3.906
-0.060,-0.052,-1.098,12.573,-7.446,-4.028
-0.037,-0.079,-1.020,5.920,-8.911,-5.737
-0.016,-0.109,-1.003,-0.916,-5.493,-7.080
-0.005,-0.113,-1.029,-3.052,-0.977,-6.775
0.002,-0.109,-1.048,-3.784,1.282,-5.798
0.000,-0.137,-1.035,-3.723,1.770,-5.554
-0.001,-0.168,-1.060,-5.493,2.869,-5.005
0.001,-0.182,-1.110,-7.812,4.272,-3.540
-0.005,-0.176,-1.136,-8.728,3.113,-1.160
-0.014,-0.153,-1.152,-8.850,0.549,1.526
-0.025,-0.124,-1.149,-10.986,-2.319,3.540
-0.031,-0.103,-1.119,-13.733,-5.554,4.272
-0.029,-0.098,-1.105,-15.564,-6.897,4.272
-0.027,-0.083,-1.085,-13.916,-7.751,4.517
-0.027,-0.063,-1.050,-8.179,-8.667,4.822
-0.023,-0.053,-1.019,-0.854,-8.606,4.761
-0.021,-0.050,-1.007,4.272,-7.385,4.150
-0.016,-0.051,-1.001,7.019,-6.287,3.296
-0.015,-0.059,-0.990,7.385,-5.859,2.319
-0.008,-0.061,-0.985,3.906,-5.371,1.465
-0.011,-0.077,-0.975,-0.061,-5.310,0.610
-0.006,-0.084,-0.968,-2.502,-5.188,0.732
-0.002,-0.088,-0.950,-4.456,-5.005,1.099
-0.003,-0.065,-0.928,-5.249,-4.456,1.770
0.009,-0.074,-0.928,-6.042,-2.991,1.282
-0.007,-0.077,-0.930,-6.226,-1.465,0.671
-0.002,-0.055,-0.952,-5.249,-0.183,0.977
-0.010,-0.055,-0.963,-5.005,1.282,0.244
-0.014,-0.054,-0.971,-3.296,1.709,-0.549
-0.013,-0.072,-0.991,-1.831,3.052,-1.160
-0.011,-0.077,-1.024,-0.183,3.418,-1.404
-0.014,-0.062,-1.047,0.366,2.563,-0.671
-0.019,-0.080,-1.031,0.000,0.793,-1.160
-0.025,-0.098,-1.034,0.549,-0.183,-1.282
-0.031,-0.082,-1.029,0.488,-0.732,0.000
-0.031,-0.098,-0.998,-0.366,-2.075,0.061
-0.031,-0.103,-0.991,0.183,-1.831,0.305
-0.023,-0.087,-0.996,1.282,-0.671,1.587
-0.020,-0.081,-0.985,1.831,-0.549,2.136
-0.011,-0.073,-1.014,0.977,0.061,2.197
-0.012,-0.067,-1.010,-0.854,-0.427,1.831
-0.020,-0.082,-1.002,-0.854,-1.099,1.343
-0.024,-0.090,-1.004,-0.305,-0.732,1.343
-0.027,-0.092,-1.010,1.526,-0.732,1.892
-0.031,-0.052,-1.016,3.662,-0.305,2.808
-0.025,-0.056,-0.980,4.944,-0.427,1.892
-0.020,-0.067,-0.998,5.127,1.038,0.671
-0.016,-0.048,-1.014,3.845,1.892,0.549
-0.013,-0.049,-1.020,2.441,1.526,-0.732
-0.014,-0.073,-1.008,0.305,1.099,-2.319
-0.015,-0.080,-1.012,-1.160,1.099,-2.869
-0.019,-0.094,-1.016,-1.587,1.465,-2.930
-0.018,-0.130,-1.025,-1.343,1.404,-2.991
-0.014,-0.126,-1.044,-1.160,1.770,-1.770
-0.012,-0.113,-1.051,-1.099,1.160,-0.122
-0.016,-0.108,-1.029,-0.977,-0.244,0.916
-0.017,-0.087,-1.002,-0.732,-1.221,1.831
-0.015,-0.068,-1.004,-1.648,-0.488,2.197
-0.010,-0.082,-1.022,-3.357,0.183,1.221
-0.009,-0.077,-1.020,-4.944,-0.244,0.488
-0.012,-0.078,-1.014,-5.371,-0.549,-0.061
-0.015,-0.089,-1.000,-5.127,-0.793,-0.732
-0.014,-0.094,-0.996,-3.662,-0.244,-0.793
-0.013,-0.106,-0.992,-1.526,0.366,-0.671
-0.010,-0.095,-1.007,-0.061,1.221,0.122
-0.009,-0.092,-1.011,-0.732,1.160,0.549
-0.007,-0.105,-1.031,-2.136,0.916,0.061
-0.011,-0.096,-1.019,-2.502,0.244,0.610
-0.015,-0.095,-1.000,-1.526,0.000,0.610
-0.020,-0.102,-0.996,0.183,0.366,0.610
-0.016,-0.093,-1.004,0.549,0.977,1.038
-0.016,-0.097,-1.000,0.427,0.793,0.854
-0.016,-0.095,-0.998,0.366,0.427,0.916
-0.016,-0.087,-1.000,-0.183,0.427,1.282
-0.021,-0.104,-0.996,-0.183,0.488,0.916
-0.019,-0.088,-1.007,0.854,0.793,1.343
-0.019,-0.085,-1.012,1.160,0.732,1.648
-0.019,-0.082,-1.016,1.038,0.427,1.099
-0.022,-0.100,-1.014,0.000,0.061,0.488
-0.021,-0.104,-1.015,-0.244,-0.244,0.732
-0.024,-0.095,-1.029,0.122,-0.366,1.465
-0.025,-0.084,-1.009,0.671,-1.221,1.831
-0.023,-0.071,-1.017,1.282,-1.282,1.831
-0.021,-0.075,-1.016,0.916,-1.343,1.526
-0.015,-0.055,-1.025,1.221,-1.831,1.343
-0.015,-0.059,-1.020,1.221,-2.197,0.610
-0.013,-0.087,-1.013,1.587,-2.686,-0.793
-0.017,-0.099,-0.999,0.916,-2.747,-0.916
-0.017,-0.121,-0.985,0.183,-2.197,-1.038
-0.013,-0.112,-1.013,0.122,-0.793,0.122
-0.009,-0.107,-1.028,-1.099,-0.305,1.160
-0.006,-0.106,-1.024,-1.465,-0.916,1.587
-0.004,-0.098,-1.009,-0.244,-1.770,2.197
-0.004,-0.089,-1.005,0.244,-1.282,2.686
-0.002,-0.094,-1.006,0.305,-0.793,2.502
-0.002,-0.082,-1.010,0.000,-0.488,2.686
-0.007,-0.075,-1.008,0.977,-0.671,2.686
-0.009,-0.063,-1.010,0.793,-0.610,2.136
-0.014,-0.064,-1.000,0.061,-0.732,1.282
-0.010,-0.077,-1.002,0.366,0.000,0.305
-0.858,0.375,-1.755,-157.532,464.233,-44.556
-0.819,0.175,-2.020,-211.853,434.753,-74.341
-0.891,-0.033,-2.128,-216.553,399.109,-93.445
-0.944,-0.306,-2.363,-160.522,380.981,-104.004
-0.934,-0.464,-2.429,-66.223,361.145,-103.882
-0.890,-0.618,-2.577,31.799,340.271,-91.125
-0.786,-0.597,-2.460,113.281,310.730,-70.862
-0.698,-0.662,-2.388,154.846,282.532,-48.340
-0.440,-0.567,-2.786,125.305,271.362,-30.457
-0.279,-0.438,-3.136,53.894,247.314,-16.602
-0.219,-0.457,-3.305,-14.587,192.749,-13.245
-0.186,-0.357,-2.916,-50.537,114.014,-4.272
-0.240,-0.247,-2.376,-51.453,52.002,7.812
-0.305,-0.167,-1.933,-31.128,21.912,17.029
-0.352,-0.045,-1.604,-2.747,12.756,25.024
-0.348,0.095,-1.466,20.386,18.127,28.748
-0.282,0.202,-1.446,28.259,26.367,24.231
-0.215,0.160,-1.505,23.560,29.663,12.695
-0.161,0.055,-1.524,15.686,25.208,0.854
-0.140,-0.046,-1.426,9.705,13.550,-5.920
-0.129,-0.134,-1.269,4.395,1.953,-8.728
-0.098,-0.190,-1.150,0.000,-3.601,-8.118
-0.054,-0.163,-1.126,-4.272,-1.099,-4.578
-0.036,-0.138,-1.140,-6.348,3.296,-2.380
-0.022,-0.110,-1.168,-4.089,5.005,-1.587
-0.011,-0.118,-1.141,0.488,2.563,-2.563
-0.002,-0.169,-1.055,2.441,-0.916,-4.089
0.007,-0.219,-1.061,0.732,1.038,-4.700
0.008,-0.236,-1.115,-1.465,3.845,-3.418
0.004,-0.224,-1.110,-4.578,2.258,-1.099
0.001,-0.215,-1.104,-7.263,0.122,1.160
0.002,-0.208,-1.133,-11.719,-0.671,2.930
-0.001,-0.199,-1.141,-14.771,-2.869,4.761
-0.010,-0.175,-1.110,-14.771,-6.287,6.958
-0.017,-0.160,-1.072,-12.512,-8.057,8.301
-0.012,-0.096,-1.091,-7.019,-6.714,9.949
-0.008,-0.099,-1.067,-1.526,-6.470,9.094
-0.012,-0.090,-1.009,2.747,-7.690,7.812
-0.015,-0.102,-0.980,3.845,-6.775,6.836
-0.010,-0.107,-0.970,4.639,-4.822,6.042
-0.005,-0.113,-0.977,2.747,-2.808,5.920
-0.005,-0.118,-0.997,-0.610,-1.587,5.920
-0.005,-0.094,-1.039,-4.272,-0.854,6.714
-0.003,-0.072,-1.046,-5.432,-2.075,6.897
-0.007,-0.057,-1.032,-5.615,-3.601,6.409
-0.009,-0.057,-0.998,-4.517,-4.578,5.310
-0.007,-0.045,-0.971,-1.648,-4.517,4.211
-0.000,-0.066,-0.965,-0.854,-3.296,2.808
0.006,-0.056,-0.962,-1.038,-1.953,1.831
0.001,-0.082,-0.965,-1.221,-0.488,0.366
0.005,-0.110,-0.985,-0.305,0.977,-0.549
0.001,-0.094,-0.997,0.305,1.221,0.122
0.001,-0.103,-1.011,-0.305,0.977,0.000
-0.001,-0.116,-1.007,-1.343,0.244,0.000
-0.007,-0.098,-0.993,-1.221,-0.916,1.038
-0.010,-0.081,-0.991,-1.160,-0.610,1.953
-0.010,-0.082,-0.997,-1.404,-0.183,1.343
-0.011,-0.070,-1.014,-3.174,-0.122,0.610
-0.014,-0.090,-0.991,-5.615,-0.977,-0.793
-0.018,-0.124,-0.979,-4.272,-1.404,-1.892
-0.021,-0.103,-0.989,-3.296,-0.610,-0.671
-0.013,-0.110,-0.988,-2.930,-0.610,-0.488
-0.010,-0.081,-1.008,-2.441,0.061,-0.122
-0.015,-0.079,-0.999,-3.052,-0.061,-0.793
-0.017,-0.095,-0.981,-3.357,0.000,-2.136
-0.014,-0.119,-0.979,-1.892,0.793,-2.686
-0.012,-0.117,-0.993,0.427,1.892,-1.953
-0.011,-0.117,-1.004,2.930,2.625,-1.648
-0.008,-0.125,-1.005,3.601,2.808,-1.892
-0.000,-0.153,-1.018,1.465,2.808,-2.502
0.003,-0.152,-1.035,-0.427,2.380,-2.014
0.003,-0.143,-1.037,-1.587,1.099,-0.916
-0.005,-0.136,-1.014,-3.662,-0.366,-0.671
-0.010,-0.127,-1.005,-4.395,-0.610,-0.488
-0.008,-0.122,-1.002,-3.967,-0.183,-0.427
-0.009,-0.120,-1.002,-2.869,0.244,-0.427
-0.010,-0.116,-1.007,-1.526,0.854,-0.732
-0.007,-0.102,-1.008,-1.160,0.977,-0.671
-0.005,-0.117,-1.017,-1.587,1.343,-1.648
-0.005,-0.126,-1.022,-2.136,1.526,-2.502
-0.003,-0.164,-1.024,-2.625,1.587,-3.113
-0.002,-0.176,-1.024,-2.258,1.038,-2.563
-0.003,-0.154,-1.034,-2.075,1.038,-0.793
-0.004,-0.147,-1.034,-2.075,0.427,0.000
0.000,-0.136,-1.034,-2.808,-0.488,0.061
-0.005,-0.144,-1.022,-4.333,-1.038,-0.061
-0.005,-0.153,-0.990,-3.906,-1.892,-0.183
-0.005,-0.144,-0.977,-3.113,-1.221,0.610
-0.008,-0.143,-0.978,-2.869,-0.061,0.854
-0.005,-0.133,-0.986,-2.075,0.854,1.160
-0.005,-0.137,-1.000,-1.282,1.465,1.160
-0.007,-0.129,-1.001,-0.488,1.343,1.099
-0.007,-0.126,-1.009,-1.648,1.282,1.099
-0.004,-0.141,-1.014,-2.930,1.282,0.671
-0.005,-0.138,-1.023,-2.991,1.282,0.732
-0.007,-0.132,-1.021,-2.563,0.977,1.404
-0.009,-0.144,-1.018,-2.869,0.366,1.099
-0.008,-0.143,-1.018,-2.930,0.305,1.404
-0.010,-0.140,-1.015,-2.258,-0.122,1.709
-0.012,-0.136,-1.010,-1.160,-0.366,2.136
-0.015,-0.109,-1.005,-0.366,-0.427,2.686
-0.016,-0.111,-1.001,-0.061,-0.122,2.014
-0.011,-0.118,-1.009,0.122,-0.061,0.549
-0.012,-0.123,-1.002,-0.122,0.000,0.183
-0.015,-0.122,-0.998,0.610,-0.305,0.000
-0.013,-0.126,-0.996,0.427,0.122,-0.183
-0.012,-0.147,-1.001,-0.671,0.488,-0.793
-0.008,-0.152,-1.021,-2.197,0.427,-0.488
-0.004,-0.151,-1.026,-3.906,-0.427,0.305
-0.001,-0.149,-1.028,-5.371,-1.587,0.916
-0.004,-0.129,-1.019,-6.531,-2.502,1.526
-0.006,-0.135,-0.990,-6.409,-3.418,0.977
-0.003,-0.138,-0.991,-4.944,-2.563,0.488
-0.002,-0.138,-0.985,-2.197,-1.343,0.916
-0.001,-0.136,-0.987,0.366,-0.366,1.038
0.000,-0.147,-0.983,2.686,0.183,0.977
0.001,-0.133,-0.994,3.052,0.732,1.221
0.001,-0.141,-1.005,1.770,1.038,0.977
0.004,-0.151,-1.004,0.916,0.671,0.793
-1.330,0.338,-1.632,49.377,536.499,12.207
-1.311,0.319,-2.607,46.570,559.265,11.047
-1.146,0.276,-3.568,22.644,543.396,4.822
-0.826,0.209,-4.000,-9.399,472.717,-6.409
-0.573,0.119,-4.000,-33.325,357.849,-14.832
-0.455,0.020,-3.671,-41.138,241.211,-17.700
-0.388,0.039,-3.090,-40.222,152.283,-12.207
-0.344,0.121,-2.469,-38.208,92.407,-4.761
-0.301,0.197,-2.078,-35.828,68.176,-1.038
-0.254,0.276,-1.940,-33.936,66.956,0.122
-0.198,0.364,-1.837,-28.381,63.660,-0.916
-0.153,0.397,-1.718,-18.250,55.847,-5.127
-0.120,0.365,-1.590,-7.935,49.194,-13.062
-0.093,0.243,-1.472,0.427,44.373,-22.400
-0.094,0.133,-1.410,4.700,42.969,-28.320
-0.033,0.045,-1.376,5.188,41.870,-29.541
-0.023,-0.058,-1.351,4.639,40.100,-29.480
0.005,-0.099,-1.328,0.854,35.950,-26.245
0.011,-0.132,-1.318,-2.808,31.250,-20.447
0.021,-0.154,-1.300,-2.441,24.963,-14.343
0.020,-0.097,-1.246,-1.160,17.822,-6.531
0.023,-0.059,-1.171,-0.732,11.353,-1.953
0.045,-0.021,-1.110,-2.869,7.385,0.183
0.037,0.001,-1.095,-7.935,7.690,0.916
0.032,-0.000,-1.083,-11.719,8.301,0.427
0.030,-0.002,-1.094,-12.512,8.850,0.122
0.031,0.007,-1.112,-14.282,8.789,0.916
0.026,0.021,-1.133,-16.479,8.118,1.221
0.021,0.025,-1.135,-17.883,6.775,0.793
0.017,0.001,-1.111,-17.395,5.249,-0.366
0.006,-0.036,-1.086,-14.221,5.066,-0.854
0.003,-0.049,-1.081,-9.888,6.165,0.610
0.010,-0.029,-1.111,-5.981,7.324,2.747
0.007,0.010,-1.147,-3.662,7.263,4.700
0.010,0.032,-1.138,-2.625,4.761,4.700
0.003,-0.000,-1.092,-2.563,1.221,3.174
0.007,0.023,-1.088,-2.258,0.122,3.357
0.016,0.034,-1.087,-3.723,-0.305,3.174
0.020,0.039,-1.092,-5.493,-0.854,1.587
0.024,0.018,-1.054,-6.165,-2.258,0.000
0.031,-0.010,-1.018,-3.540,-2.808,-1.160
0.036,-0.025,-1.015,-0.244,-1.343,-0.732
0.043,-0.021,-1.002,3.601,-0.610,0.244
0.048,-0.014,-1.003,5.493,-0.427,0.977
0.045,-0.006,-1.006,3.845,-0.610,1.099
0.036,-0.019,-1.004,2.258,-1.038,1.099
0.029,-0.022,-1.008,2.686,-1.831,1.038
0.020,0.007,-0.991,2.991,-3.052,2.014
0.013,0.029,-1.000,2.441,-2.869,1.892
0.009,0.018,-0.983,2.136,-2.502,0.427
0.012,0.014,-0.971,1.953,-2.075,-0.793
0.016,0.001,-0.975,-0.305,-1.282,-1.709
0.018,-0.047,-0.972,-2.441,-1.160,-2.808
0.019,-0.051,-0.970,-3.784,-1.160,-1.343
0.020,-0.058,-0.963,-5.737,-1.221,0.671
0.020,-0.036,-0.988,-5.737,-0.427,2.380
0.018,0.001,-0.996,-4.761,0.000,4.089
0.012,0.025,-0.984,-2.930,-0.305,4.028
0.005,0.033,-0.971,-0.916,0.488,2.747
0.007,0.021,-0.974,0.854,2.014,1.099
0.014,0.013,-1.012,2.014,4.089,-0.122
0.021,0.016,-1.031,2.258,4.211,-0.977
0.025,0.000,-1.034,1.709,3.357,-1.892
0.018,-0.013,-1.027,0.977,2.808,-2.563
0.016,-0.032,-1.010,1.587,2.197,-2.563
0.019,-0.033,-1.006,1.587,2.014,-1.770
0.018,-0.025,-1.025,1.465,2.441,-0.793
0.017,-0.012,-1.022,1.831,1.953,-0.061
0.021,-0.012,-1.024,1.099,1.770,-0.122
0.025,-0.019,-1.041,-0.427,2.197,-0.549
0.027,-0.017,-1.058,-0.427,1.770,-0.366
0.026,0.003,-1.047,-0.366,0.610,0.244
0.025,-0.015,-1.038,-0.610,0.122,-0.793
0.025,-0.030,-1.043,-0.183,0.122,-1.282
0.027,-0.020,-1.042,0.671,0.000,-0.793
0.028,-0.040,-1.028,1.282,-0.488,-0.427
0.032,-0.021,-1.030,3.052,-0.366,0.488
0.029,0.000,-1.031,2.991,-0.366,1.465
0.025,-0.020,-1.022,1.099,-0.549,0.427
0.029,-0.022,-1.026,-0.244,-0.488,0.244
0.027,-0.009,-1.035,-1.465,-0.305,0.732
0.024,-0.031,-1.042,-1.892,-0.183,0.305
0.023,-0.049,-1.026,-1.465,-0.610,0.732
0.025,-0.024,-1.017,0.122,-1.038,2.258
0.024,-0.019,-1.028,0.183,-0.366,3.052
0.026,-0.013,-1.034,-0.061,-0.488,3.052
0.026,0.014,-1.040,-0.366,-1.160,3.357
0.018,0.023,-1.028,-1.465,-2.136,2.686
0.018,0.001,-1.023,-2.686,-2.686,1.404
0.016,-0.002,-1.023,-3.601,-3.174,1.160
0.015,0.012,-1.015,-4.211,-3.540,1.709
0.013,-0.004,-1.003,-4.028,-3.479,1.038
0.014,-0.008,-0.997,-0.488,-2.747,1.160
0.015,0.014,-0.992,2.563,-1.770,1.770
0.020,0.014,-1.005,3.296,-0.854,1.282
0.018,0.007,-1.017,1.587,-0.305,0.122
0.024,0.005,-1.016,0.549,-0.854,-0.549
0.023,0.011,-1.021,-0.488,-1.343,-0.793
0.021,-0.001,-1.000,-2.563,-2.258,-1.221
0.019,0.009,-1.009,-2.258,-1.831,-1.221
0.029,0.004,-1.017,-1.465,-1.770,-1.221
0.027,0.005,-1.021,-2.380,-2.136,-1.526
0.027,-0.000,-1.018,-1.282,-2.502,-1.770
0.026,0.003,-1.008,-0.549,-2.747,-1.770
0.027,-0.001,-1.007,-0.671,-2.258,-2.197
0.030,-0.016,-1.014,-0.854,-1.648,-2.808
0.032,-0.013,-1.019,-1.526,-1.404,-2.686
0.033,-0.028,-1.024,-2.075,-1.404,-2.686
0.038,-0.024,-1.028,-0.793,-1.892,-2.319
0.038,-0.012,-1.015,-0.061,-2.625,-1.221
0.039,-0.013,-1.014,-0.244,-2.747,-1.282
0.039,-0.003,-1.012,-0.977,-2.686,-1.038
0.036,-0.008,-1.007,-1.831,-2.869,-1.160
0.036,-0.006,-1.008,-2.136,-2.869,-1.343
0.034,-0.021,-1.005,-2.441,-2.808,-1.587
0.037,-0.028,-1.011,-1.465,-2.930,-1.648
0.040,-0.004,-1.027,-0.671,-2.747,-0.610
0.042,-0.013,-1.020,-1.343,-3.357,-1.221
0.040,-0.020,-1.016,-0.977,-3.723,-1.343
-1.501,0.402,-1.248,185.181,568.176,10.803
-1.312,0.478,-2.192,146.362,586.182,18.433
-0.962,0.693,-3.052,66.711,563.049,17.334
-0.725,0.538,-3.705,-29.297,504.639,-16.052
-0.528,0.353,-4.000,-104.675,415.771,-46.204
-0.472,0.224,-3.695,-134.216,306.824,-59.021
-0.486,-0.054,-3.197,-131.104,221.008,-65.369
-0.508,-0.302,-2.803,-97.168,170.776,-58.899
-0.450,-0.198,-2.508,-35.339,141.724,-34.790
-0.332,0.130,-2.339,24.170,124.451,-10.193
-0.160,0.252,-2.279,58.289,111.511,-5.981
-0.065,0.216,-2.196,63.171,93.872,-10.559
-0.031,0.164,-2.004,53.162,68.970,-12.024
-0.033,0.131,-1.736,40.771,43.823,-10.132
-0.043,0.088,-1.523,30.884,29.602,-8.179
-0.028,0.102,-1.425,23.926,26.367,-5.737
-0.016,0.083,-1.371,20.081,25.452,-4.578
-0.005,0.021,-1.328,19.714,23.193,-5.127
0.002,-0.002,-1.302,23.254,20.874,-4.089
-0.001,-0.054,-1.254,25.024,17.212,-3.235
-0.001,-0.126,-1.176,24.414,12.756,-2.686
-0.009,-0.143,-1.122,21.606,10.193,0.122
-0.013,-0.164,-1.122,14.282,10.742,3.601
-0.002,-0.143,-1.156,4.028,10.681,6.714
0.018,-0.041,-1.213,-6.531,9.277,11.047
0.003,0.030,-1.217,-14.832,4.761,12.695
-0.012,0.099,-1.160,-18.799,-0.610,12.146
-0.018,0.125,-1.124,-19.592,-3.296,9.583
-0.029,0.127,-1.126,-19.592,-3.174,5.432
-0.045,0.102,-1.117,-16.846,-2.991,1.648
-0.055,0.075,-1.072,-8.911,-2.686,-0.549
-0.050,0.060,-1.073,0.610,0.000,-1.953
-0.026,0.051,-1.079,3.784,2.441,-3.296
-0.002,-0.006,-1.104,-0.427,3.662,-5.493
0.019,-0.079,-1.115,-6.592,2.625,-7.751
0.032,-0.117,-1.118,-11.353,0.244,-6.897
0.036,-0.117,-1.125,-15.381,-1.831,-4.211
0.046,-0.095,-1.127,-18.005,-4.150,-2.075
0.039,-0.066,-1.121,-16.174,-5.737,0.305
0.037,-0.040,-1.102,-12.329,-6.958,2.319
0.037,-0.044,-1.038,-6.104,-8.423,3.052
0.039,-0.061,-1.000,1.160,-7.874,3.479
0.049,-0.029,-0.997,6.348,-5.554,5.554
0.053,-0.014,-0.999,7.202,-4.272,6.653
0.049,-0.001,-0.991,5.981,-3.845,6.775
0.045,0.013,-0.985,5.737,-4.028,6.958
0.045,0.025,-0.978,3.540,-4.028,6.714
0.044,0.006,-0.970,-0.732,-3.845,5.554
0.038,0.019,-0.980,-2.197,-3.296,5.859
0.041,0.050,-0.989,-1.587,-2.869,6.592
0.035,0.051,-0.993,-2.014,-2.319,5.981
0.024,0.028,-0.994,-1.526,-1.709,5.188
0.026,0.050,-1.004,2.075,-0.854,5.798
0.025,0.048,-1.002,3.845,-0.122,5.493
0.025,0.042,-1.008,3.479,0.427,4.456
0.026,0.037,-1.006,3.479,0.366,4.089
0.027,0.056,-1.002,4.089,-0.061,4.211
0.029,0.058,-0.991,3.540,-0.488,3.418
0.031,0.034,-0.971,2.075,-0.854,2.197
0.033,0.032,-0.989,2.014,-0.244,2.747
0.027,0.039,-0.974,1.282,-0.305,3.723
0.026,0.053,-0.989,1.953,0.244,4.150
0.025,0.035,-1.000,2.441,0.854,4.089
0.026,0.045,-1.010,1.953,0.488,4.333
0.029,0.046,-1.025,0.366,0.244,4.211
0.034,0.033,-1.032,-0.244,0.000,3.540
0.035,0.023,-1.022,1.038,-1.160,3.784
0.030,0.040,-1.000,1.709,-2.380,4.883
0.029,0.067,-0.983,0.610,-2.502,5.249
0.026,0.069,-0.990,-0.793,-1.343,4.456
0.026,0.059,-0.996,-2.502,-1.099,3.357
0.026,0.083,-1.012,-1.648,-0.854,2.930
0.024,0.081,-1.022,-0.854,-0.610,1.892
0.028,0.062,-1.021,0.122,-0.793,0.305
0.032,0.056,-1.022,0.183,-0.854,-0.488
0.036,0.038,-1.031,-0.183,-0.916,-1.160
0.040,0.024,-1.046,1.343,-0.732,-1.160
0.039,0.015,-1.034,3.235,-1.404,-0.732
0.040,0.024,-1.052,4.883,-1.709,-0.244
0.042,0.021,-1.062,4.333,-1.770,-0.244
0.042,0.009,-1.067,3.113,-2.869,-0.549
0.043,0.016,-1.059,2.380,-4.272,-0.183
0.038,0.009,-1.034,2.136,-5.676,0.488
0.038,0.026,-1.024,2.563,-5.981,1.404
0.041,0.043,-1.021,1.831,-5.615,1.648
0.044,0.031,-1.027,0.732,-5.127,0.916
0.041,0.026,-1.036,1.343,-4.456,0.671
0.041,0.019,-1.024,2.686,-5.188,0.854
0.042,0.016,-1.029,3.540,-5.432,1.221
0.041,0.006,-1.012,2.441,-5.981,1.465
0.042,0.019,-1.015,2.563,-6.104,2.014
0.048,0.044,-1.028,2.258,-5.798,2.991
0.048,0.052,-1.028,1.038,-6.653,2.319
0.049,0.054,-1.042,-0.671,-7.019,1.587
0.048,0.030,-1.039,-2.136,-7.751,0.549
0.046,0.046,-1.053,-1.099,-8.728,0.610
0.045,0.047,-1.037,-1.282,-9.644,0.305
0.043,0.025,-1.029,-0.305,-10.254,-0.854
0.045,0.033,-1.017,2.686,-10.071,-0.366
0.047,0.039,-1.004,4.395,-9.644,-0.427
0.050,0.043,-1.001,5.371,-9.155,-0.671
0.054,0.035,-0.994,4.333,-8.789,-1.282
0.059,0.017,-1.003,1.892,-7.935,-2.136
0.061,0.011,-1.007,-0.366,-7.568,-2.258
0.059,0.007,-1.006,-0.916,-7.812,-1.831
0.065,0.011,-1.012,-1.892,-8.057,-1.160
0.072,0.018,-1.012,-2.747,-8.362,-1.038
0.077,0.001,-1.011,-4.395,-9.033,-1.160
0.080,-0.016,-1.005,-4.822,-9.827,-0.488
0.086,0.008,-1.019,-2.686,-9.705,1.587
0.085,0.022,-1.015,-0.671,-9.827,2.625
0.083,0.006,-1.007,-0.122,-10.559,2.197
0.085,0.003,-1.002,0.610,-10.742,2.441
0.084,0.009,-1.009,0.427,-10.681,2.808
0.081,0.005,-1.006,0.122,-11.047,2.991
0.083,0.012,-1.006,-0.061,-10.986,3.357
0.089,-0.002,-1.022,1.892,-10.315,3.601
0.088,0.006,-1.031,4.272,-10.742,4.700
0.089,0.025,-1.012,5.249,-11.902,5.920
-2.355,0.201,-0.969,112.366,687.805,-23.926
-2.636,0.054,-1.923,135.132,732.361,-19.348
-2.195,0.157,-3.109,130.737,748.657,-9.888
-1.789,0.148,-3.951,70.923,711.792,-7.629
-1.441,0.146,-4.000,-28.137,644.226,-14.771
-0.774,0.013,-4.000,-109.741,517.029,-33.142
-0.450,-0.129,-4.000,-167.297,320.129,-42.908
-0.461,-0.342,-4.000,-176.575,154.236,-43.213
-0.534,-0.396,-3.198,-135.742,51.880,-27.649
-0.522,-0.376,-2.368,-67.200,12.390,-5.737
-0.433,-0.184,-2.020,-3.784,17.212,14.404
-0.300,0.041,-2.028,41.992,33.752,26.917
-0.160,0.248,-2.009,68.604,32.593,28.870
-0.092,0.314,-1.802,70.801,13.855,23.315
-0.074,0.252,-1.485,60.669,-7.324,13.123
-0.082,0.169,-1.223,47.852,-15.625,4.578
-0.071,0.124,-1.114,36.987,-8.789,-0.122
-0.046,0.070,-1.136,27.588,2.136,-3.540
-0.026,-0.002,-1.213,20.020,9.705,-6.592
0.028,-0.055,-1.270,13.428,10.376,-8.911
0.043,-0.124,-1.374,4.150,9.277,-10.986
0.046,-0.269,-1.375,-4.150,2.686,-13.367
0.050,-0.359,-1.358,-5.493,-5.554,-10.803
0.056,-0.311,-1.299,-3.784,-14.038,-3.113
0.046,-0.267,-1.203,-6.226,-21.973,2.380
0.041,-0.226,-1.114,-11.047,-26.550,5.310
0.041,-0.151,-1.037,-14.709,-27.039,7.874
0.042,-0.103,-1.001,-16.418,-24.170,8.911
0.042,-0.065,-0.981,-16.724,-20.752,8.240
0.040,-0.015,-0.985,-15.015,-16.541,7.446
0.046,-0.005,-1.029,-13.428,-11.658,4.395
0.058,-0.032,-1.073,-14.038,-8.667,0.122
0.055,-0.093,-1.089,-15.015,-8.179,-3.296
0.059,-0.136,-1.083,-15.015,-8.789,-4.272
0.059,-0.135,-1.076,-13.306,-8.545,-3.113
0.058,-0.125,-1.049,-8.972,-8.667,-1.221
0.064,-0.118,-0.978,-3.540,-9.949,0.183
0.071,-0.108,-0.941,0.671,-8.850,1.221
0.079,-0.103,-0.943,1.465,-6.348,1.099
0.089,-0.097,-0.956,1.770,-4.333,0.977
0.087,-0.105,-0.958,0.427,-3.540,0.793
0.090,-0.103,-0.958,-1.221,-3.357,0.854
0.085,-0.106,-0.945,-2.136,-3.296,1.160
0.082,-0.125,-0.926,-1.465,-3.296,0.977
0.080,-0.113,-0.930,1.709,-2.686,2.319
0.080,-0.074,-0.930,4.517,-1.831,4.272
0.078,-0.052,-0.926,5.249,-2.319,3.906
0.075,-0.048,-0.928,3.662,-1.770,2.625
0.064,-0.063,-0.937,1.282,-0.854,0.916
0.057,-0.065,-0.939,0.244,0.061,0.000
0.056,-0.078,-0.948,-1.343,1.160,-0.977
0.062,-0.102,-0.972,-2.991,2.930,-1.709
0.062,-0.095,-1.015,-2.991,4.211,-1.343
0.065,-0.102,-1.051,-3.601,4.028,-0.854
0.053,-0.094,-1.050,-2.991,2.075,0.122
0.052,-0.071,-1.031,-1.221,-0.183,1.160
0.055,-0.052,-1.034,-1.770,-1.038,0.977
0.055,-0.044,-1.040,-3.906,-1.953,-0.122
0.052,-0.049,-1.019,-5.554,-3.601,-1.343
0.047,-0.052,-1.000,-2.991,-4.822,-1.831
0.049,-0.031,-0.997,0.854,-4.578,-1.770
0.040,-0.051,-0.964,1.526,-4.272,-2.869
0.038,-0.072,-0.949,2.930,-2.625,-3.357
0.048,-0.085,-0.965,3.784,0.000,-3.174
0.056,-0.107,-0.993,2.869,1.892,-3.113
0.064,-0.112,-1.022,2.625,2.441,-2.625
0.076,-0.101,-1.025,3.296,1.648,-1.587
0.077,-0.096,-1.014,3.357,0.671,-1.282
0.077,-0.095,-1.006,1.465,0.244,-1.282
0.079,-0.091,-1.000,-0.488,0.061,-1.465
0.075,-0.094,-0.994,-1.343,0.183,-1.465
0.072,-0.107,-0.987,-0.977,0.488,-1.526
0.068,-0.085,-1.007,0.793,1.404,-0.366
0.071,-0.075,-1.016,0.793,1.770,-0.122
0.071,-0.087,-1.025,-0.366,1.831,-0.854
0.072,-0.072,-1.036,-0.183,1.709,-1.038
0.074,-0.078,-1.022,-0.488,0.671,-1.831
0.073,-0.117,-0.999,0.061,0.000,-2.869
0.065,-0.124,-0.990,0.854,0.366,-2.258
0.066,-0.110,-0.976,0.977,0.671,-1.038
0.064,-0.109,-0.990,0.671,1.770,-0.427
0.068,-0.094,-1.015,1.465,2.502,0.305
0.067,-0.098,-1.013,-0.183,1.892,0.305
0.067,-0.098,-1.027,-1.038,1.526,0.122
0.065,-0.104,-1.025,-1.038,1.221,0.488
0.064,-0.117,-1.008,0.244,0.610,0.366
0.072,-0.097,-1.010,1.282,1.099,1.160
0.073,-0.112,-1.005,0.366,1.526,0.916
0.069,-0.134,-0.994,0.916,1.404,0.854
0.071,-0.090,-1.006,3.113,1.648,2.808
0.067,-0.077,-1.001,2.869,1.465,2.930
0.066,-0.079,-1.006,2.014,1.770,1.831
0.062,-0.086,-1.013,0.977,1.648,1.099
0.062,-0.089,-1.020,-0.183,1.282,0.671
0.061,-0.094,-1.036,-1.404,1.282,0.366
0.059,-0.099,-1.026,-1.160,0.366,0.854
0.055,-0.093,-0.999,0.183,-0.671,1.221
0.054,-0.086,-0.986,1.953,-0.305,1.648
0.047,-0.083,-0.996,1.648,1.221,1.770
0.054,-0.082,-0.996,0.061,1.282,1.404
0.056,-0.092,-1.015,-0.732,1.953,0.854
0.057,-0.085,-1.027,-0.977,2.197,0.671
0.053,-0.068,-1.027,-0.427,1.648,0.916
0.054,-0.070,-1.017,-0.366,0.793,0.000
0.054,-0.074,-1.011,-1.404,0.610,-0.549
0.056,-0.076,-1.022,-0.977,0.610,-0.977
0.057,-0.089,-1.007,-0.183,0.000,-0.916
0.057,-0.098,-0.998,0.000,-0.671,-1.038
0.060,-0.096,-0.996,-0.854,-0.244,-0.671
0.060,-0.104,-1.011,-1.221,0.122,-0.671
0.062,-0.101,-1.014,-1.465,-0.061,-0.061
0.066,-0.105,-1.010,-1.282,-0.122,0.000
0.069,-0.102,-1.014,-0.549,0.000,-0.061
0.068,-0.112,-0.995,-0.305,-0.549,0.183
0.065,-0.099,-0.980,0.488,-1.282,0.610
0.061,-0.086,-0.973,0.488,-0.488,1.221
0.058,-0.090,-0.977,0.549,0.305,0.854
0.061,-0.092,-0.986,0.488,1.282,0.610
0.066,-0.085,-0.995,0.427,1.709,0.610
-1.505,0.484,-2.262,72.937,608.704,42.480
-1.252,0.617,-3.161,-8.301,596.130,25.635
-0.944,0.540,-3.966,-85.388,550.415,-9.216
-0.671,0.243,-4.000,-133.423,465.210,-41.016
-0.584,-0.170,-4.000,-130.310,347.473,-54.260
-0.665,-0.375,-3.406,-75.012,233.032,-40.710
-0.652,-0.306,-2.620,0.061,155.640,-12.634
-0.611,-0.162,-2.199,61.218,131.104,10.742
-0.496,-0.046,-2.341,85.266,141.479,23.193
-0.286,0.048,-2.611,79.956,139.343,28.442
-0.166,0.136,-2.687,61.890,112.610,32.471
-0.129,0.173,-2.556,38.696,73.792,34.363
-0.163,0.240,-2.212,23.560,33.691,36.255
-0.210,0.315,-1.835,17.456,4.150,37.964
-0.201,0.360,-1.519,14.160,-10.193,36.926
-0.147,0.412,-1.420,13.245,-7.507,32.959
-0.106,0.472,-1.408,13.245,-2.136,27.710
-0.071,0.472,-1.338,9.888,-3.723,18.250
-0.058,0.387,-1.223,6.042,-8.301,5.676
-0.030,0.267,-1.128,1.648,-10.498,-4.883
0.005,0.147,-1.071,-3.418,-9.521,-12.451
0.022,0.034,-1.046,-9.399,-6.958,-16.235
0.032,-0.002,-1.063,-11.169,-3.784,-15.198
0.048,-0.020,-1.056,-12.268,-2.808,-12.695
0.061,-0.040,-1.040,-13.794,-2.258,-11.230
0.075,-0.053,-1.062,-17.334,-0.488,-10.132
0.074,-0.049,-1.094,-21.423,0.732,-8.545
0.075,-0.065,-1.095,-24.414,-0.549,-7.935
0.071,-0.078,-1.095,-24.170,-2.502,-7.141
0.066,-0.078,-1.076,-24.170,-4.761,-5.798
0.058,-0.070,-1.054,-22.461,-6.042,-4.333
0.053,-0.038,-1.056,-18.188,-5.981,-2.625
0.057,-0.001,-1.053,-13.672,-5.493,-1.343
0.061,0.022,-1.071,-10.681,-4.272,-1.892
0.058,0.003,-1.069,-7.996,-3.662,-3.418
0.064,-0.031,-1.044,-7.202,-4.639,-5.005
0.070,-0.058,-1.022,-7.446,-5.310,-5.127
0.081,-0.054,-1.017,-6.470,-5.066,-4.089
0.081,-0.068,-0.972,-4.089,-5.371,-2.930
0.084,-0.055,-0.948,-0.549,-4.944,-0.854
0.083,-0.035,-0.940,2.319,-3.357,1.160
0.080,-0.018,-0.954,2.808,-1.892,2.136
0.079,-0.001,-0.960,1.587,-1.160,2.075
0.077,-0.008,-0.957,-1.404,-0.916,1.160
0.078,-0.027,-0.965,-2.930,-0.305,0.305
0.085,-0.029,-0.973,-1.221,-0.122,0.854
0.082,-0.022,-0.969,0.305,-0.183,2.014
0.083,-0.004,-0.965,-0.061,-0.061,2.319
0.084,0.005,-0.987,-1.709,1.221,2.136
0.079,-0.002,-1.004,-3.540,1.587,1.465
0.079,0.017,-1.017,-3.723,1.221,1.648
0.068,0.021,-1.020,-3.296,1.038,1.099
0.055,-0.020,-0.991,-0.977,0.610,0.305
0.054,-0.008,-0.994,3.906,1.404,1.282
0.052,-0.014,-1.018,4.333,3.113,2.136
0.053,-0.025,-1.054,4.028,3.418,1.831
0.061,-0.001,-1.057,3.601,1.709,2.930
0.056,0.001,-1.036,0.671,-0.244,2.686
0.052,-0.006,-1.011,-1.709,-1.282,2.197
0.056,0.008,-1.011,-2.014,-1.404,2.380
0.064,0.027,-1.011,-3.357,-1.465,2.319
0.056,0.009,-0.994,-5.310,-2.014,1.099
0.054,-0.019,-0.979,-5.127,-1.160,0.427
0.057,-0.020,-0.973,-2.991,0.061,1.282
0.056,-0.009,-1.000,-0.366,2.014,2.258
0.057,0.014,-1.013,2.197,3.052,2.625
0.061,0.001,-1.003,3.479,2.441,1.770
0.063,0.009,-1.015,3.113,2.930,1.343
0.065,0.002,-1.030,1.526,3.540,0.671
0.069,0.009,-1.047,0.671,3.174,0.305
0.066,0.004,-1.034,-0.488,2.136,-0.122
0.065,-0.000,-1.028,-1.526,1.648,-0.366
0.064,-0.014,-1.032,-2.502,1.770,-0.427
0.059,-0.005,-1.050,-2.319,2.014,0.122
0.056,-0.014,-1.034,-1.343,1.221,0.305
0.056,-0.008,-1.035,0.793,0.977,0.671
0.057,-0.026,-1.017,0.610,0.610,0.671
0.059,-0.022,-1.042,1.038,1.221,0.977
0.066,-0.009,-1.051,0.793,0.977,1.709
0.067,-0.003,-1.038,0.732,-0.244,1.526
0.070,-0.001,-1.027,0.061,-0.610,1.038
0.064,-0.006,-1.012,-0.732,-1.038,0.549
0.065,0.011,-1.008,-0.916,-1.038,0.305
0.066,0.016,-1.003,-1.953,-0.854,-0.427
0.066,0.009,-1.005,-2.502,-0.488,-1.770
0.069,-0.002,-1.002,-2.380,-0.427,-2.686
0.071,-0.027,-0.999,-2.747,-0.549,-3.235
0.074,-0.045,-1.009,-2.441,-0.183,-3.357
0.073,-0.073,-0.992,-1.465,-0.366,-2.930
0.067,-0.061,-0.978,1.221,-0.488,-0.854
0.059,-0.045,-0.964,2.625,0.061,1.709
0.065,-0.012,-0.983,3.662,1.404,3.113
0.065,-0.000,-1.013,2.869,2.869,3.357
0.066,0.017,-1.028,2.258,2.563,2.991
0.061,0.022,-1.028,1.709,1.587,2.258
0.056,-0.001,-1.017,0.854,0.916,0.916
0.053,-0.012,-1.016,1.221,0.671,0.793
0.050,-0.014,-1.005,1.648,0.488,1.465
0.050,-0.017,-1.001,1.648,0.427,2.136
0.051,0.011,-1.019,0.549,0.793,3.052
0.050,0.011,-1.013,-1.282,0.000,2.563
0.054,0.022,-1.027,-2.319,-0.488,1.953
0.055,0.010,-1.022,-4.333,-0.732,1.282
0.059,0.005,-1.036,-3.845,-0.793,0.671
0.060,0.019,-1.035,-1.831,-0.793,1.038
0.055,-0.013,-1.003,-0.183,-1.282,0.610
0.059,-0.020,-0.996,1.038,-0.610,0.793
0.067,-0.025,-1.008,2.197,0.244,1.343
0.072,-0.001,-1.029,2.869,0.488,2.136
0.068,0.002,-1.017,1.648,-0.549,1.953
0.067,-0.000,-1.007,0.183,-0.977,1.099
0.065,0.006,-1.011,-0.305,-0.610,1.038
0.065,0.013,-1.023,-0.916,-0.244,0.916
0.062,0.004,-1.021,-0.427,-0.488,0.427
0.064,0.013,-1.016,0.793,-0.854,0.305
0.064,0.000,-0.997,0.610,-1.099,-0.244
0.063,-0.003,-0.992,1.282,-0.671,-0.671
0.066,0.008,-0.999,2.075,-0.061,0.061
0.067,0.008,-1.011,1.953,0.427,-0.244
-1.241,0.373,-1.753,131.226,568.848,15.747
-1.035,0.234,-2.513,69.153,562.927,11.597
-0.831,0.133,-3.095,-2.686,520.447,5.432
-0.678,0.059,-3.447,-62.317,449.463,-4.578
-0.559,-0.092,-3.442,-98.999,359.375,-13.184
-0.515,-0.268,-3.201,-105.835,273.804,-14.404
-0.514,-0.327,-2.898,-87.341,211.548,-2.197
-0.529,-0.247,-2.645,-47.241,169.922,20.142
-0.520,-0.036,-2.495,9.399,143.921,44.678
-0.464,0.235,-2.429,63.049,126.282,64.270
-0.401,0.439,-2.381,98.877,108.887,73.059
-0.311,0.627,-2.326,107.117,86.670,72.021
-0.214,0.677,-2.222,89.478,59.753,62.439
-0.178,0.663,-2.018,61.218,30.884,48.828
-0.166,0.660,-1.771,31.433,6.714,39.185
-0.164,0.653,-1.564,9.094,-5.737,30.701
-0.149,0.585,-1.440,-4.150,-9.216,21.484
-0.123,0.526,-1.351,-9.399,-9.888,13.123
-0.086,0.477,-1.257,-7.629,-11.169,6.653
-0.053,0.420,-1.165,-3.357,-11.597,0.671
-0.010,0.335,-1.071,-0.916,-11.108,-5.005
0.012,0.261,-1.033,-2.502,-7.324,-9.644
0.035,0.162,-1.019,-5.188,-3.052,-12.756
0.060,0.104,-1.015,-8.240,-0.061,-13.062
0.089,0.074,-1.019,-10.376,2.686,-11.963
0.103,0.038,-1.045,-9.766,5.493,-10.376
0.109,0.053,-1.067,-8.240,7.568,-6.714
0.115,0.072,-1.078,-7.080,7.874,-3.601
0.119,0.089,-1.086,-7.202,8.118,-2.441
0.111,0.112,-1.113,-8.057,8.240,-1.587
0.110,0.121,-1.124,-10.132,7.019,-1.831
0.108,0.084,-1.132,-13.000,5.310,-3.052
0.095,0.048,-1.126,-14.282,3.418,-3.113
0.086,0.085,-1.128,-13.367,1.404,-0.916
0.082,0.102,-1.119,-13.062,-0.183,-0.061
0.070,0.094,-1.091,-11.169,-1.770,0.000
0.072,0.127,-1.084,-7.874,-2.563,0.977
0.073,0.151,-1.053,-5.493,-3.174,1.282
0.075,0.128,-1.046,-4.456,-2.869,-0.610
0.080,0.129,-1.058,-4.089,-2.319,-1.587
0.082,0.106,-1.032,-4.517,-3.235,-2.380
0.077,0.088,-1.026,-2.075,-4.089,-2.747
0.082,0.122,-1.028,-1.526,-4.517,-1.648
0.076,0.109,-1.022,-2.991,-5.493,-2.380
0.074,0.117,-1.012,-4.333,-6.348,-2.869
0.078,0.123,-0.989,-7.019,-7.202,-3.235
0.071,0.086,-0.963,-6.897,-6.226,-3.662
0.077,0.108,-0.996,-1.038,-4.639,-2.747
0.080,0.126,-0.985,2.991,-4.639,-1.770
0.071,0.122,-0.978,3.540,-4.944,-2.747
0.063,0.103,-0.947,1.099,-4.822,-3.906
0.066,0.069,-0.936,-1.160,-3.967,-5.005
0.073,0.074,-0.962,-2.380,-2.319,-4.333
0.075,0.091,-0.982,-3.784,-1.831,-3.296
0.073,0.106,-0.983,-5.737,-2.625,-3.296
0.073,0.106,-0.974,-10.071,-3.601,-3.967
0.071,0.077,-0.960,-14.404,-3.906,-5.188
0.068,0.055,-0.958,-13.977,-3.601,-5.005
0.065,0.085,-0.964,-9.949,-3.174,-3.174
0.068,0.076,-0.941,-7.568,-2.991,-2.441
0.069,0.077,-0.948,-4.944,-1.343,-1.770
0.068,0.099,-0.960,-1.831,0.183,-0.366
0.066,0.094,-0.958,1.038,0.977,-0.488
0.075,0.091,-0.967,3.845,1.953,-0.610
0.079,0.099,-0.985,4.333,2.869,-0.610
0.076,0.090,-0.999,2.991,2.625,-1.221
0.080,0.105,-1.005,1.709,2.258,-1.282
0.082,0.099,-1.003,0.610,1.465,-1.953
0.081,0.093,-1.006,-0.427,1.404,-2.441
0.079,0.098,-1.002,-0.671,1.160,-2.258
0.078,0.087,-0.987,-0.854,0.916,-2.258
0.078,0.086,-0.986,1.160,1.465,-2.014
0.085,0.101,-1.007,3.662,2.625,-1.343
0.090,0.092,-1.016,3.906,2.563,-1.831
0.089,0.057,-0.999,3.174,1.648,-2.686
0.092,0.067,-1.002,3.479,1.526,-1.770
0.090,0.067,-1.000,2.502,1.587,-1.038
0.086,0.057,-1.000,0.854,1.526,-1.099
0.085,0.070,-1.001,-0.061,1.343,-0.061
0.083,0.083,-1.009,-1.648,1.648,0.671
0.083,0.091,-1.018,-2.319,1.770,0.732
0.086,0.100,-1.032,-2.991,2.075,0.427
0.082,0.088,-1.022,-2.502,1.953,-0.061
0.081,0.092,-1.026,0.122,1.709,-0.061
0.083,0.089,-1.021,0.977,1.587,-0.305
0.081,0.075,-1.022,0.916,1.465,-0.671
0.079,0.069,-1.015,0.732,1.038,-0.549
0.082,0.071,-1.004,0.000,0.366,-0.183
0.080,0.075,-1.007,-1.648,0.549,-0.122
0.080,0.068,-1.004,-3.479,0.305,-0.305
0.087,0.068,-1.001,-5.127,0.000,-0.122
0.083,0.043,-0.998,-5.554,0.122,0.122
0.079,0.054,-1.004,-2.625,0.427,1.465
0.077,0.066,-0.990,0.671,0.183,2.808
0.079,0.081,-0.990,3.418,0.427,3.662
0.077,0.098,-1.002,3.845,1.343,3.906
0.072,0.095,-0.998,3.601,0.977,3.296
0.071,0.086,-0.987,3.052,0.549,2.747
0.074,0.098,-1.002,1.587,1.160,2.747
0.069,0.088,-1.019,-0.671,1.648,2.319
0.070,0.075,-1.018,-1.099,1.221,2.197
0.072,0.086,-1.013,-0.549,0.549,2.991
0.067,0.079,-1.014,-0.122,0.488,3.113
0.072,0.097,-1.015,1.160,0.183,3.540
0.073,0.098,-1.009,0.732,-0.244,3.235
0.074,0.113,-1.012,-0.549,-0.488,2.930
0.074,0.112,-1.008,-1.465,-1.038,2.258
0.071,0.099,-0.994,-2.197,-1.526,1.465
0.070,0.078,-0.982,-1.465,-1.282,1.526
0.072,0.099,-1.008,1.465,0.061,2.441
0.073,0.092,-1.008,2.563,0.427,2.625
0.076,0.091,-0.996,2.991,-0.305,2.258
0.080,0.088,-0.990,2.319,-0.244,2.197
0.084,0.091,-0.988,1.038,0.122,1.831
0.090,0.105,-0.992,-0.671,0.305,1.770
0.087,0.112,-0.988,-2.197,0.183,1.587
0.089,0.119,-0.991,-2.930,0.488,1.099
0.088,0.107,-0.993,-3.662,0.977,0.427
0.089,0.090,-1.011,-1.343,1.221,-0.183
-1.661,0.414,-1.809,-42.786,587.708,2.502
-1.629,0.092,-2.849,-84.961,609.436,-14.160
-1.374,-0.388,-4.000,-111.633,626.465,-33.142
-1.075,-0.684,-4.000,-92.834,568.054,-36.072
-0.795,-0.490,-4.000,-31.067,402.039,-7.690
-0.576,0.101,-4.000,28.809,219.727,34.668
-0.464,0.386,-3.184,66.162,113.403,46.021
-0.337,0.453,-2.692,71.899,86.670,35.156
-0.226,0.513,-2.467,67.566,75.989,26.855
-0.137,0.542,-2.242,59.387,58.228,22.400
-0.078,0.571,-1.975,52.063,35.889,17.639
-0.029,0.556,-1.681,40.955,18.372,11.902
-0.021,0.466,-1.424,25.879,9.827,3.601
-0.030,0.390,-1.251,12.573,11.597,-2.380
-0.028,0.296,-1.200,7.080,20.752,-6.958
-0.031,0.189,-1.198,8.850,30.273,-10.803
0.001,0.133,-1.222,12.695,34.729,-11.658
0.033,0.117,-1.247,12.939,35.461,-11.780
0.041,0.059,-1.280,9.155,33.447,-12.634
0.042,0.023,-1.279,1.282,27.649,-13.000
0.064,0.006,-1.259,-9.766,20.508,-11.841
0.064,-0.007,-1.237,-20.020,14.709,-10.498
0.059,0.006,-1.222,-23.560,9.338,-8.301
0.051,0.054,-1.163,-22.339,4.395,-5.493
0.035,0.057,-1.074,-19.531,0.488,-4.578
0.018,0.046,-0.982,-14.771,-0.244,-4.150
0.018,0.030,-0.953,-12.268,2.625,-3.479
0.029,0.046,-1.041,-14.160,9.705,-2.808
0.037,0.089,-1.163,-14.648,13.855,-2.136
0.031,0.101,-1.208,-14.954,11.353,-2.502
0.028,0.088,-1.216,-15.259,6.409,-3.723
0.027,0.033,-1.199,-16.479,2.686,-5.554
0.036,-0.027,-1.209,-16.052,0.000,-6.531
0.039,-0.020,-1.166,-14.526,-3.845,-4.150
0.046,-0.023,-1.105,-9.888,-7.751,-1.648
0.054,0.010,-1.073,-3.906,-9.094,1.221
0.058,0.056,-1.060,-0.854,-9.277,3.418
0.056,0.089,-1.023,-0.244,-10.742,3.235
0.053,0.084,-0.957,-1.099,-12.268,1.404
0.066,0.074,-0.937,-3.235,-11.047,-0.793
0.071,0.049,-0.957,-8.179,-7.935,-2.258
0.072,0.041,-0.977,-10.132,-6.409,-2.380
0.073,0.051,-0.977,-8.789,-6.409,-1.526
0.073,0.093,-0.990,-7.507,-5.981,-0.854
0.073,0.108,-1.006,-7.385,-5.432,-2.075
0.065,0.090,-0.996,-8.301,-5.920,-4.028
0.073,0.036,-0.955,-9.338,-6.836,-6.165
0.076,-0.001,-0.945,-7.996,-5.981,-6.531
0.083,0.008,-0.961,-7.690,-3.906,-4.211
0.078,0.014,-0.980,-6.714,-2.747,-3.113
0.073,0.032,-0.971,-5.310,-2.441,-2.380
0.066,0.022,-0.953,-3.662,-2.075,-2.319
0.069,0.038,-0.983,-2.380,0.183,-1.892
0.066,0.015,-1.026,-2.441,1.587,-2.197
0.070,0.039,-1.043,-2.380,0.549,-1.282
0.056,0.044,-1.016,-2.747,-1.404,-1.160
0.047,-0.006,-0.958,-1.587,-2.747,-1.648
0.052,-0.012,-0.958,1.038,-0.977,0.000
0.056,0.023,-0.991,3.296,0.916,3.052
0.065,0.051,-1.015,3.662,0.916,4.150
0.066,0.083,-1.017,2.563,-0.427,3.784
0.055,0.105,-1.001,0.366,-1.648,2.380
0.052,0.057,-0.960,-2.808,-2.563,-0.732
0.059,0.050,-0.983,-4.578,-1.160,-1.892
0.061,0.059,-1.011,-4.761,0.488,-1.343
0.056,0.053,-0.992,-2.502,-0.244,-1.404
0.063,0.058,-0.972,1.709,-0.427,-1.221
0.069,0.057,-0.984,2.808,1.099,-1.404
0.071,0.039,-1.017,1.221,2.441,-2.319
0.070,0.042,-1.035,0.366,1.831,-2.441
0.069,0.019,-1.011,-0.854,0.061,-2.502
0.072,0.004,-1.001,-1.343,-0.366,-2.075
0.069,0.033,-1.015,-0.977,0.305,-0.305
0.068,0.052,-1.009,-1.770,-0.061,0.305
0.071,0.031,-1.004,-2.197,-0.366,-0.732
0.078,0.036,-1.005,-1.892,-0.427,-0.854
0.077,0.043,-1.000,-3.479,-0.671,-0.916
0.073,0.034,-0.990,-6.287,-1.343,-1.587
0.071,0.019,-0.985,-7.507,-1.221,-1.892
0.074,0.047,-1.001,-6.470,-0.427,-1.038
0.077,0.030,-1.007,-6.104,0.000,-1.526
0.078,0.015,-1.024,-4.639,0.427,-2.075
0.074,0.019,-1.004,-2.747,-0.122,-1.404
0.073,0.030,-0.993,0.671,0.061,-0.732
0.071,0.013,-0.974,3.113,0.977,-0.854
0.078,0.006,-0.993,4.639,1.709,-0.488
0.078,0.031,-1.011,3.967,2.441,0.610
0.076,0.009,-1.001,1.526,1.404,-0.122
0.078,0.014,-1.002,-0.061,0.977,0.000
0.075,0.036,-1.004,-1.526,0.854,0.671
0.072,0.041,-1.000,-2.014,0.671,0.366
0.068,0.043,-0.997,-0.793,0.793,0.000
0.064,0.047,-0.990,0.671,1.099,-0.305
0.063,0.052,-0.998,1.465,1.770,-0.732
0.064,0.042,-0.994,0.732,1.892,-1.709
0.064,0.010,-1.004,0.488,2.197,-2.319
0.067,0.007,-1.010,0.000,2.258,-1.648
0.065,0.014,-1.015,-0.488,1.831,-0.610
0.069,0.027,-1.024,-0.854,1.404,-0.061
0.065,0.020,-1.015,-0.793,1.099,-0.183
0.062,0.028,-1.019,0.305,1.221,-0.061
0.062,0.031,-1.020,0.244,1.221,0.000
0.059,0.028,-1.025,-0.305,1.282,-0.366
0.062,0.031,-1.024,0.427,1.038,-0.427
0.059,0.041,-1.013,1.343,0.610,-0.610
0.057,0.022,-1.010,0.244,0.916,-1.282
0.065,0.028,-1.019,-0.122,1.221,-1.404
0.069,0.028,-1.026,-1.038,1.099,-1.404
0.071,0.021,-1.021,-1.953,0.793,-1.587
0.073,-0.001,-1.020,-1.709,0.732,-1.648
0.078,-0.003,-1.024,-1.343,0.793,-1.038
0.082,-0.005,-1.037,-2.502,0.671,-0.244
0.079,0.008,-1.039,-3.662,0.122,0.549
0.079,-0.007,-1.028,-4.150,-0.732,0.732
0.078,-0.001,-1.030,-3.052,-1.099,1.526
0.079,0.012,-1.032,-3.540,-1.282,2.686
0.079,0.030,-1.040,-3.662,-1.648,2.930
0.075,0.044,-1.032,-3.113,-2.258,2.869
0.071,0.046,-1.012,-1.648,-2.808,2.319
-0.734,0.640,-1.428,-134.949,456.848,-11.414
-0.834,0.404,-1.834,-150.085,456.787,-43.579
-0.956,0.019,-2.072,-124.023,441.895,-62.927
-1.087,-0.377,-2.291,-63.049,427.795,-64.758
-1.131,-0.571,-2.616,20.752,416.687,-45.288
-0.888,-0.585,-3.101,83.801,391.113,-15.564
-0.558,-0.330,-3.568,88.379,346.069,14.526
-0.367,-0.036,-3.780,41.016,275.146,34.973
-0.310,0.172,-3.702,-15.442,194.092,39.612
-0.284,0.273,-3.084,-47.485,108.704,36.987
-0.359,0.275,-2.411,-50.598,48.340,34.180
-0.366,0.344,-1.870,-31.616,21.973,36.255
-0.285,0.546,-1.705,-1.160,28.564,39.429
-0.197,0.649,-1.640,22.827,37.720,34.790
-0.120,0.593,-1.589,32.959,39.917,22.278
-0.073,0.464,-1.570,32.898,37.598,8.789
-0.077,0.246,-1.493,22.156,30.579,-1.892
-0.088,0.117,-1.436,10.681,23.315,-5.249
-0.080,0.108,-1.439,6.104,20.325,-2.808
-0.059,0.136,-1.452,5.859,17.029,0.061
-0.041,0.185,-1.395,7.385,10.193,1.465
-0.000,0.221,-1.312,5.249,2.869,-0.427
0.028,0.162,-1.235,-0.061,-1.770,-5.188
0.044,0.081,-1.155,-3.723,-4.822,-9.094
0.062,0.037,-1.062,-4.089,-7.080,-9.705
0.076,-0.005,-1.005,-3.967,-6.226,-9.583
0.084,-0.033,-1.027,-5.371,-1.465,-8.789
0.089,-0.033,-1.055,-7.751,2.014,-6.348
0.086,-0.009,-1.110,-8.423,4.089,-4.150
0.088,-0.024,-1.154,-9.338,4.456,-3.296
0.079,-0.026,-1.167,-8.911,2.625,-2.319
0.078,-0.037,-1.217,-6.592,0.854,-1.038
0.068,-0.026,-1.167,-4.395,-2.808,0.916
0.074,-0.009,-1.138,-2.258,-5.493,2.319
0.086,-0.003,-1.125,-3.601,-5.981,3.113
0.084,0.037,-1.100,-5.310,-7.507,4.456
0.078,0.074,-1.063,-5.493,-9.216,5.066
0.076,0.054,-1.020,-6.775,-9.766,3.540
0.078,0.070,-1.016,-7.263,-8.789,2.563
0.067,0.065,-1.007,-5.920,-7.324,2.258
0.072,0.041,-0.989,-1.526,-6.165,1.770
0.080,0.013,-0.965,3.784,-5.493,2.319
0.082,0.014,-0.980,5.371,-3.540,4.150
0.082,0.034,-1.005,4.944,-2.563,5.737
0.086,0.080,-1.016,3.296,-3.174,6.714
0.080,0.103,-1.012,-0.305,-4.639,5.981
0.065,0.097,-0.997,-3.052,-6.042,4.211
0.065,0.110,-0.963,-4.272,-6.653,2.930
0.063,0.102,-0.965,-4.883,-4.822,1.709
0.064,0.075,-0.979,-3.357,-2.808,0.122
0.071,0.084,-0.975,-0.671,-2.380,-0.122
0.067,0.043,-0.964,0.977,-1.953,-0.916
0.071,0.030,-0.961,2.686,-0.916,-1.160
0.071,0.040,-0.963,1.770,-0.244,-0.305
0.067,0.028,-0.984,-0.061,0.488,-0.244
0.069,0.038,-1.012,-0.671,0.977,0.549
0.065,0.053,-1.002,-0.732,0.183,1.282
0.066,0.053,-0.999,-0.916,-0.488,1.038
0.065,0.038,-0.999,-2.197,-0.366,0.610
0.066,0.023,-0.999,-4.395,-0.427,0.610
0.069,0.014,-0.996,-4.578,-1.038,1.282
0.058,0.021,-0.980,-3.418,-1.770,2.869
0.054,0.029,-0.953,-3.418,-2.380,4.150
0.053,0.063,-0.971,-2.136,-0.977,4.822
0.055,0.099,-0.987,-1.770,0.122,4.944
0.058,0.120,-0.980,-1.587,0.183,3.296
0.055,0.095,-0.961,-1.160,0.183,0.610
0.066,0.081,-0.962,-0.183,1.404,-1.404
0.072,0.042,-0.965,0.488,2.380,-2.686
0.074,0.009,-0.968,1.221,2.747,-2.930
0.078,0.009,-0.975,0.366,3.296,-2.258
0.078,-0.016,-1.001,-1.892,3.906,-1.648
0.076,-0.027,-1.038,-2.991,4.028,-0.122
0.074,-0.012,-1.050,-2.808,2.686,2.319
0.068,0.018,-1.049,-0.916,1.221,4.333
0.069,0.059,-1.041,-0.671,0.000,5.249
0.070,0.058,-1.032,-2.319,-0.732,4.211
0.070,0.069,-1.025,-3.479,-1.099,3.113
0.073,0.080,-1.007,-3.662,-1.587,2.380
0.070,0.043,-0.971,-3.296,-1.709,0.977
0.069,0.047,-0.980,-0.366,-0.305,0.916
0.072,0.053,-0.981,1.343,0.854,1.587
0.077,0.044,-1.002,1.038,1.648,0.549
0.080,0.030,-1.018,-1.282,2.075,0.244
0.077,0.012,-1.033,-3.052,1.770,0.305
0.077,0.007,-1.032,-3.174,1.038,1.160
0.075,0.014,-1.031,-1.831,0.549,2.625
0.074,0.031,-1.025,0.366,0.305,3.662
0.076,0.057,-1.021,1.709,0.122,4.211
0.078,0.057,-1.014,1.892,-0.244,3.540
0.077,0.050,-1.008,0.549,-0.427,2.625
0.073,0.052,-0.998,-1.099,-0.671,2.319
0.069,0.065,-0.994,-2.319,-0.549,2.258
0.068,0.064,-1.000,-4.211,-0.061,1.404
0.062,0.051,-1.015,-5.554,0.732,0.305
0.058,0.044,-1.033,-4.333,0.854,0.427
0.058,0.047,-1.030,-1.587,0.183,0.610
0.059,0.042,-1.027,0.061,-0.366,0.549
0.061,0.010,-1.021,0.122,-0.549,0.061
0.065,0.025,-1.025,0.610,-0.854,1.160
0.065,0.052,-1.015,0.183,-1.587,2.258
0.064,0.042,-0.993,-1.282,-2.197,1.770
0.068,0.048,-0.990,-1.770,-1.953,1.648
0.068,0.066,-0.988,-1.709,-1.404,1.892
0.070,0.060,-0.991,-1.953,-0.916,1.038
0.076,0.047,-0.997,-1.343,-0.244,0.061
0.076,0.037,-1.005,-0.427,0.366,-0.305
0.075,0.021,-1.014,1.282,0.549,-0.549
0.075,0.033,-1.026,2.319,0.366,0.366
0.080,0.039,-1.039,2.319,-0.061,0.366
0.081,0.030,-1.033,0.916,-0.916,-0.305
0.083,0.012,-1.017,-0.671,-2.258,-0.732
0.079,-0.000,-0.993,-2.197,-2.991,0.000
0.080,-0.008,-0.990,-2.502,-2.747,1.160
0.081,0.018,-1.006,-0.916,-1.709,3.357
0.082,0.039,-1.019,-0.305,-1.831,4.333
0.080,0.045,-1.011,-0.549,-2.441,4.089
0.079,0.053,-1.017,-2.441,-2.563,3.418
0.074,0.055,-1.011,-4.211,-2.869,2.747
-0.914,0.410,-2.307,-35.889,508.118,-44.556
-0.869,0.490,-2.383,-52.734,473.694,-65.857
-0.843,0.487,-2.473,-56.091,450.134,-90.576
-0.836,0.323,-2.678,-31.677,434.631,-109.131
-0.791,0.074,-3.012,7.507,416.748,-118.958
-0.668,-0.214,-3.203,41.382,380.066,-118.591
-0.483,-0.425,-3.268,70.618,327.209,-108.765
-0.276,-0.499,-3.213,82.153,269.226,-89.844
-0.115,-0.411,-3.005,62.073,208.801,-66.589
-0.065,-0.392,-2.771,27.710,153.870,-50.293
-0.038,-0.330,-2.452,1.221,107.056,-36.804
-0.018,-0.213,-2.132,-9.155,68.787,-23.560
-0.016,-0.144,-1.823,-7.996,42.786,-14.465
-0.008,-0.038,-1.592,1.404,31.250,-6.592
0.017,0.058,-1.436,15.747,28.198,-2.441
0.042,0.093,-1.329,27.710,28.564,-3.235
0.033,0.048,-1.235,34.424,30.334,-7.446
0.039,-0.036,-1.158,36.499,31.799,-12.268
0.042,-0.129,-1.130,38.330,34.180,-13.794
0.063,-0.186,-1.185,38.147,37.476,-12.085
0.077,-0.225,-1.271,35.156,37.598,-7.324
0.067,-0.219,-1.307,28.931,31.494,-2.258
0.050,-0.188,-1.250,18.677,22.583,2.869
0.046,-0.180,-1.200,5.676,15.503,5.920
0.043,-0.171,-1.213,-7.324,12.024,8.484
