aX,aY,aZ,gX,gY,gZ
-0.595,0.150,2.647,-15.930,-376.099,93.445
-0.561,0.172,2.683,-31.006,-315.552,93.201
-0.484,0.448,2.518,-38.635,-255.005,97.412
-0.374,0.724,2.444,-41.992,-211.670,94.604
-0.274,0.816,2.467,-47.241,-178.467,75.256
-0.209,0.756,2.480,-44.250,-145.996,48.950
-0.159,0.575,2.394,-31.616,-112.061,23.865
-0.143,0.370,2.164,-18.066,-75.867,4.150
-0.146,0.191,1.865,-11.658,-44.189,-6.470
-0.123,0.084,1.603,-12.695,-23.315,-10.376
-0.104,0.038,1.470,-17.090,-14.771,-9.827
-0.094,-0.022,1.446,-21.790,-11.780,-8.545
-0.102,-0.075,1.374,-18.982,-7.263,-6.531
-0.080,-0.052,1.217,-6.653,-2.380,-1.465
-0.058,0.003,1.176,2.258,-3.235,3.296
-0.052,0.057,1.143,8.118,-4.395,6.531
-0.035,0.081,1.086,10.803,-2.197,7.019
-0.019,0.121,1.065,10.254,-0.854,7.324
-0.008,0.162,1.034,7.874,1.221,6.897
0.002,0.173,1.021,5.737,3.418,4.700
0.010,0.167,1.006,4.761,6.165,1.831
0.012,0.135,0.986,2.991,9.766,-0.671
0.010,0.095,0.936,3.601,11.841,-1.892
0.013,0.098,0.881,5.066,11.963,-0.610
0.026,0.093,0.852,2.136,9.094,0.671
0.047,0.116,0.869,0.854,3.662,2.625
0.059,0.147,0.933,0.916,-0.549,3.845
0.058,0.156,1.001,2.258,-2.319,3.235
0.052,0.158,0.987,5.310,-0.244,1.953
0.052,0.176,0.945,6.592,1.892,1.770
0.053,0.184,0.979,3.601,0.488,1.038
0.055,0.187,0.995,0.977,0.000,-0.183
0.057,0.182,0.992,0.183,0.671,-0.916
0.052,0.166,0.996,1.343,0.427,-2.319
0.040,0.148,0.992,4.333,0.183,-3.113
0.042,0.122,0.980,8.179,-0.122,-3.357
0.039,0.108,0.975,9.094,-0.793,-2.991
0.045,0.111,0.971,7.202,-1.099,-2.014
0.047,0.123,0.999,5.798,-1.831,-1.343
0.049,0.137,1.002,5.920,-1.343,-1.282
0.057,0.148,0.988,6.714,0.366,-1.892
0.052,0.127,0.994,6.348,0.549,-3.052
0.049,0.098,1.019,4.639,0.366,-3.967
0.046,0.102,1.017,4.700,1.465,-3.723
0.044,0.097,1.001,4.822,2.625,-3.479
0.046,0.100,1.000,3.967,2.258,-3.174
0.044,0.108,1.000,3.540,2.258,-2.808
0.045,0.085,0.994,3.052,2.625,-3.174
0.043,0.103,0.975,1.648,2.808,-2.869
0.052,0.113,0.988,0.061,1.770,-2.625
0.047,0.109,1.004,1.465,0.854,-3.174
0.040,0.110,0.990,4.822,2.014,-3.296
0.038,0.079,1.011,5.249,1.953,-4.089
0.042,0.059,1.020,5.066,2.258,-4.089
0.035,0.063,0.994,5.554,3.967,-3.113
0.040,0.080,0.989,4.578,3.845,-2.014
0.043,0.098,0.993,3.967,3.418,-1.282
0.040,0.089,0.987,3.235,3.418,-1.770
0.038,0.084,0.960,3.113,3.540,-1.892
0.039,0.075,0.976,0.366,2.197,-1.465
0.040,0.063,1.000,-0.061,0.916,-1.099
0.041,0.069,0.981,2.686,1.343,-0.183
0.042,0.077,0.980,4.272,1.160,0.793
0.048,0.090,1.003,3.174,0.244,1.099
0.052,0.119,1.010,1.831,0.854,1.404
0.049,0.107,1.003,1.282,2.075,0.183
0.046,0.091,0.998,1.221,2.563,-0.977
0.048,0.074,0.993,0.671,2.808,-1.038
0.050,0.084,0.988,1.404,3.052,-0.732
0.053,0.101,0.982,2.625,3.235,-0.366
0.050,0.076,0.966,2.258,3.418,-1.648
0.052,0.085,0.976,0.610,2.625,-1.587
0.053,0.095,0.987,0.244,2.197,-0.916
0.051,0.084,0.962,0.793,3.052,-1.404
0.054,0.090,0.962,0.977,2.747,-1.099
0.054,0.099,0.991,0.854,1.465,-0.793
0.056,0.083,0.988,1.221,1.587,-1.282
0.054,0.083,0.977,2.502,2.075,-1.221
0.056,0.084,0.969,3.235,2.014,-0.610
0.059,0.093,0.979,2.380,1.465,-0.427
0.064,0.109,0.991,1.892,1.221,-0.427
0.065,0.103,0.977,3.357,1.892,-1.282
0.064,0.091,0.964,3.357,2.258,-2.014
0.061,0.079,0.961,1.953,2.380,-2.319
0.060,0.076,0.968,0.916,1.953,-1.892
0.054,0.085,0.987,-0.488,1.465,-1.160
0.057,0.094,0.991,-1.221,1.648,-0.977
0.053,0.093,0.986,-1.099,2.441,-1.221
0.051,0.078,0.982,0.244,2.319,-1.770
0.054,0.075,0.979,1.587,2.075,-1.770
0.058,0.086,0.983,2.075,1.892,-1.221
0.054,0.077,0.982,3.540,1.892,-1.526
0.056,0.070,0.985,3.662,1.770,-1.892
0.054,0.067,0.983,2.808,1.892,-1.404
0.051,0.068,0.982,0.977,1.831,-0.916
0.055,0.097,1.000,-0.244,1.404,-0.122
0.060,0.115,0.999,0.305,1.892,-0.122
0.057,0.086,0.980,1.099,3.174,-1.831
0.059,0.075,0.974,0.793,3.479,-2.441
0.059,0.070,0.978,0.854,3.052,-2.075
0.055,0.056,0.983,-0.122,2.930,-2.014
0.052,0.053,0.986,-0.732,2.930,-1.465
0.053,0.064,0.976,-1.160,3.235,-0.305
0.054,0.071,0.972,-0.916,3.235,0.427
0.057,0.084,0.987,-1.404,2.869,0.671
0.061,0.076,0.995,-0.610,2.930,0.427
0.062,0.070,0.973,0.671,4.211,-0.122
0.061,0.080,0.970,0.244,4.333,0.244
0.064,0.090,0.987,-0.122,3.601,0.366
0.065,0.071,0.988,0.183,3.479,-0.366
0.068,0.066,0.971,0.671,3.845,-0.305
0.073,0.083,0.968,1.221,3.113,0.610
0.074,0.078,0.970,0.366,2.686,0.671
0.076,0.078,0.974,-0.183,2.563,0.610
0.077,0.083,0.962,0.549,2.991,1.038
0.070,0.072,0.943,-0.183,2.869,0.854
0.072,0.082,0.969,-1.221,1.343,1.343
0.072,0.078,0.991,-0.610,0.732,1.221
0.071,0.073,0.984,-0.183,1.404,1.038
-1.070,-0.390,1.802,52.002,-485.962,128.601
-1.087,0.047,2.151,35.217,-463.989,147.522
-1.006,0.508,2.451,4.395,-430.542,159.363
-0.825,1.074,2.665,-24.780,-383.057,151.489
-0.610,1.423,2.876,-79.102,-322.815,123.291
-0.321,1.330,2.984,-141.235,-252.563,75.134
-0.474,1.294,2.693,-181.091,-174.988,30.396
-0.501,0.918,2.458,-223.267,-110.046,-4.883
-0.593,0.385,2.244,-210.144,-82.275,-32.532
-0.598,0.163,2.155,-156.738,-75.745,-27.466
-0.552,0.020,2.229,-85.938,-80.139,-10.681
-0.506,-0.081,2.290,-26.611,-78.125,2.869
-0.445,0.025,2.217,3.479,-60.669,19.836
-0.322,0.262,1.996,13.855,-36.804,33.752
-0.224,0.495,1.725,8.240,-16.235,37.842
-0.126,0.616,1.521,1.709,-4.272,32.410
-0.036,0.649,1.510,-2.686,-0.061,20.935
-0.010,0.567,1.384,0.793,10.681,5.615
-0.017,0.466,1.103,6.592,27.405,-5.493
-0.005,0.390,0.976,6.897,31.860,-11.536
0.011,0.326,0.931,6.714,31.799,-14.526
0.003,0.250,0.834,9.277,34.485,-15.991
0.001,0.205,0.742,11.047,35.583,-14.282
0.004,0.211,0.664,11.658,33.142,-10.559
0.011,0.186,0.645,10.620,26.367,-7.751
0.033,0.206,0.688,10.010,17.090,-4.578
0.033,0.236,0.685,9.155,11.658,-2.014
0.037,0.247,0.689,6.165,8.057,-0.977
0.037,0.255,0.735,2.808,4.517,-0.916
0.032,0.249,0.782,-1.038,3.174,-1.709
0.018,0.255,0.790,-2.197,3.967,-1.709
0.009,0.250,0.781,-1.343,4.578,-2.136
-0.008,0.231,0.760,-1.099,3.418,-1.892
-0.009,0.230,0.787,-2.625,-0.244,-0.122
-0.002,0.268,0.860,-4.700,-4.578,2.808
-0.006,0.275,0.907,-3.357,-5.737,3.662
-0.011,0.259,0.943,-1.587,-5.432,3.479
-0.025,0.262,0.965,1.038,-5.676,4.517
-0.013,0.273,1.004,2.197,-5.493,5.432
-0.013,0.281,1.024,1.465,-4.089,5.676
-0.014,0.292,1.034,0.610,-2.930,6.409
-0.015,0.337,1.052,0.793,-3.113,7.385
-0.016,0.347,1.048,1.038,-1.953,5.920
-0.017,0.314,1.050,1.099,-0.793,3.052
-0.011,0.323,1.071,0.427,-0.305,2.502
-0.013,0.323,1.072,-0.610,1.526,1.831
-0.011,0.305,1.022,-0.549,3.845,0.488
-0.005,0.307,0.999,-0.854,4.517,0.488
0.006,0.308,0.979,-1.709,4.089,0.244
0.014,0.308,0.968,-1.465,4.150,-0.061
0.020,0.287,0.958,-0.427,4.089,-0.916
0.023,0.282,0.932,0.549,4.883,-1.160
0.031,0.288,0.918,1.709,5.249,-1.221
0.023,0.271,0.915,3.052,4.944,-1.953
0.016,0.235,0.914,3.479,5.249,-2.747
0.008,0.221,0.893,4.089,5.859,-1.892
0.000,0.230,0.862,3.784,5.554,-0.061
-0.011,0.234,0.901,3.235,2.258,1.404
-0.009,0.242,0.919,3.235,1.282,2.075
0.000,0.251,0.911,3.845,2.136,2.319
0.004,0.262,0.924,2.380,1.160,2.686
0.012,0.267,0.946,0.793,-0.610,2.869
0.006,0.294,0.969,-0.122,-1.221,3.174
0.002,0.276,0.974,0.244,-0.305,2.014
0.006,0.274,0.941,1.282,1.282,0.977
0.004,0.296,0.922,1.343,1.953,1.404
0.001,0.271,0.944,0.183,1.160,0.366
0.003,0.259,0.958,-0.427,0.671,0.488
0.011,0.270,0.966,0.000,0.671,1.770
0.012,0.270,0.969,1.892,0.610,2.136
0.020,0.270,0.931,3.357,1.221,2.136
0.025,0.284,0.945,2.991,0.549,2.197
0.030,0.290,0.968,1.709,0.000,1.709
0.021,0.295,0.959,0.793,1.343,0.793
0.015,0.268,0.953,1.160,2.197,-0.610
0.020,0.279,0.937,1.770,2.625,-0.549
0.022,0.287,0.943,1.709,2.441,-0.244
0.026,0.274,0.943,2.014,2.563,-1.160
0.022,0.268,0.914,3.723,2.930,-1.099
-0.002,0.253,0.906,3.967,1.160,-0.427
0.000,0.258,0.970,2.930,-1.404,0.671
-0.000,0.248,0.954,2.258,0.732,0.793
-0.001,0.239,0.908,1.465,2.869,0.854
-0.005,0.257,0.930,0.244,0.549,2.075
-0.002,0.270,0.966,1.587,-1.526,2.441
-0.003,0.244,0.958,4.700,-0.977,1.465
0.000,0.241,0.942,5.005,0.366,1.526
0.004,0.275,0.947,2.380,0.305,2.441
0.012,0.289,0.967,1.038,0.488,1.892
0.008,0.274,0.974,1.404,1.282,0.244
0.009,0.270,0.941,2.014,2.625,-0.610
0.007,0.264,0.920,2.991,2.686,-0.793
0.007,0.253,0.934,1.770,1.709,-0.854
0.007,0.258,0.957,0.183,0.732,-0.305
0.008,0.255,0.956,0.305,1.282,0.122
0.009,0.260,0.937,1.404,1.892,0.366
0.013,0.266,0.935,2.197,1.343,0.671
0.016,0.267,0.949,2.258,0.427,0.793
0.016,0.283,0.949,2.319,0.671,0.732
0.017,0.281,0.944,2.625,1.038,-0.122
0.021,0.288,0.953,2.747,1.160,-0.916
0.016,0.269,0.962,2.930,1.587,-1.953
0.012,0.259,0.933,2.319,2.869,-2.563
0.007,0.252,0.953,0.244,2.625,-2.319
0.015,0.245,0.963,-0.427,2.258,-1.953
0.013,0.252,0.948,0.061,3.174,-1.587
0.018,0.262,0.939,-0.305,3.723,-1.282
0.009,0.253,0.930,0.549,3.296,-1.587
0.012,0.228,0.946,0.854,2.197,-1.709
0.014,0.246,0.968,0.366,1.526,-0.671
0.015,0.247,0.942,1.221,2.747,-0.122
0.008,0.239,0.915,2.625,2.563,-0.061
0.010,0.256,0.970,1.099,0.061,0.916
0.018,0.273,0.994,1.343,0.549,0.793
0.012,0.252,0.941,3.662,3.967,-0.549
0.013,0.239,0.928,3.906,3.906,-1.038
0.014,0.248,0.948,2.563,2.136,-0.122
0.017,0.248,0.954,1.465,1.892,0.366
0.017,0.253,0.942,1.465,2.808,0.183
-1.463,0.099,2.466,73.669,-575.867,166.382
-1.357,0.507,3.042,62.866,-545.105,169.739
-1.110,1.129,3.548,34.912,-494.263,162.842
-0.641,1.385,3.970,-46.570,-407.104,132.751
-0.347,1.386,3.894,-156.311,-280.884,90.332
-0.305,1.403,3.392,-252.014,-158.203,50.842
-0.323,1.136,2.898,-283.630,-80.139,17.029
-0.361,0.669,2.302,-231.140,-45.715,-4.822
-0.382,0.289,1.916,-135.315,-49.805,-7.202
-0.327,0.079,1.883,-54.688,-75.317,4.761
-0.239,0.016,2.129,-9.033,-93.201,22.766
-0.188,0.147,2.230,3.357,-84.595,37.476
-0.133,0.294,2.160,-3.784,-58.777,44.373
-0.012,0.568,2.085,-16.418,-36.255,48.950
0.074,0.817,1.815,-10.620,-16.785,45.715
0.154,0.816,1.412,8.118,2.075,29.297
0.166,0.632,1.100,19.836,15.015,8.423
0.152,0.460,0.925,18.494,17.883,-4.395
0.138,0.366,0.878,8.606,15.564,-8.545
0.128,0.281,0.824,5.371,15.320,-10.315
0.103,0.179,0.720,10.437,16.235,-10.559
0.071,0.115,0.616,16.235,14.160,-7.019
0.087,0.122,0.642,17.822,6.531,-0.061
0.107,0.162,0.756,18.494,-1.343,7.019
0.110,0.241,0.769,23.010,-2.625,11.536
0.109,0.263,0.764,27.588,-2.869,11.658
0.102,0.304,0.744,27.466,-3.723,11.353
0.094,0.337,0.744,20.874,-4.822,10.071
0.069,0.329,0.779,11.902,-5.859,6.958
0.069,0.281,0.829,3.906,-5.676,3.845
0.020,0.250,0.866,-2.319,-5.188,2.991
0.014,0.228,0.886,-5.615,-5.005,3.296
0.014,0.247,0.931,-4.700,-7.324,5.310
0.017,0.280,0.922,-0.488,-7.751,7.568
0.034,0.272,0.966,2.625,-9.766,8.545
0.041,0.285,1.043,2.869,-11.841,9.827
0.047,0.320,1.050,3.967,-9.338,11.169
0.068,0.330,1.068,4.822,-6.287,10.193
0.071,0.326,1.053,5.066,-3.357,9.033
0.076,0.336,1.044,5.127,-1.892,8.179
0.077,0.342,1.062,3.967,-1.770,7.874
0.076,0.328,1.076,3.662,-0.305,6.348
0.074,0.329,1.030,4.089,2.075,5.371
0.086,0.325,0.984,4.333,3.967,4.517
0.093,0.347,0.957,3.479,4.211,4.089
0.096,0.339,0.959,2.197,3.723,2.502
0.099,0.327,0.922,2.563,4.639,0.549
0.088,0.303,0.865,2.380,6.104,-0.549
0.089,0.292,0.867,0.549,4.211,-0.854
0.099,0.303,0.876,0.366,2.197,-0.488
0.096,0.305,0.906,1.709,0.549,-1.282
0.075,0.286,0.880,3.723,0.244,-2.319
0.054,0.254,0.917,4.395,-1.160,-2.930
0.056,0.235,0.937,4.456,-1.282,-2.808
0.054,0.234,0.908,3.601,0.366,-1.953
0.051,0.247,0.935,1.099,-0.671,-0.549
0.054,0.256,0.949,0.549,-1.953,0.305
0.058,0.265,0.943,2.502,-2.075,0.305
0.052,0.271,0.953,2.869,-2.136,0.305
0.060,0.266,0.974,3.052,-1.648,0.061
0.065,0.256,0.972,2.625,0.061,-0.610
0.066,0.259,0.952,1.892,1.465,-0.122
0.060,0.271,0.916,2.747,2.136,0.183
0.058,0.253,0.934,3.235,0.244,-0.305
0.069,0.248,0.939,3.906,-0.488,0.061
0.069,0.242,0.949,4.517,-0.549,0.793
0.071,0.246,0.941,4.395,0.000,1.587
0.078,0.256,0.940,3.845,0.366,2.563
0.079,0.264,0.925,2.930,0.671,3.113
0.078,0.259,0.919,1.648,0.793,3.296
0.076,0.265,0.932,0.549,-0.305,3.479
0.079,0.285,0.942,0.244,-0.854,3.662
0.078,0.277,0.960,0.732,-0.610,2.563
0.076,0.270,0.973,0.244,0.183,1.770
0.075,0.287,0.952,-0.549,1.892,1.770
0.085,0.315,0.931,-1.160,2.441,1.587
0.080,0.288,0.960,-0.061,0.732,-0.061
0.070,0.269,0.960,1.953,0.183,-1.038
0.067,0.263,0.941,3.784,0.671,-0.488
0.071,0.246,0.957,3.113,0.061,-0.305
0.061,0.252,0.937,3.113,0.427,0.427
0.059,0.256,0.934,3.662,0.244,0.732
0.061,0.273,0.935,2.563,0.244,0.793
0.063,0.282,0.939,1.770,0.305,0.427
0.062,0.273,0.930,1.160,0.549,-0.549
0.058,0.265,0.948,-0.977,0.488,-0.977
0.055,0.252,0.938,-1.404,0.793,-1.343
0.057,0.238,0.920,-0.488,1.221,-1.160
0.054,0.236,0.928,-0.122,0.549,-0.244
0.060,0.244,0.940,0.000,0.061,0.977
0.057,0.234,0.949,0.977,0.061,1.404
0.059,0.239,0.922,1.770,1.099,2.197
0.062,0.264,0.924,0.549,1.038,3.418
0.071,0.275,0.953,-1.648,-0.122,3.784
0.073,0.282,0.960,-1.892,-0.122,3.601
0.073,0.279,0.939,-0.427,0.610,2.869
0.074,0.282,0.950,-0.122,0.183,2.014
0.079,0.298,0.953,0.427,0.366,1.526
0.076,0.280,0.966,1.221,0.610,0.305
0.073,0.279,0.955,1.709,1.221,-0.488
0.072,0.276,0.942,2.380,2.319,-0.916
0.072,0.263,0.939,1.587,2.258,-1.343
0.076,0.257,0.955,0.610,1.648,-1.343
0.077,0.257,0.960,0.732,1.770,-0.916
0.070,0.244,0.923,1.465,2.991,-0.916
0.073,0.245,0.907,1.648,2.869,-0.610
0.080,0.247,0.937,-0.488,1.343,0.122
0.075,0.238,0.953,-0.916,1.465,0.366
0.067,0.238,0.929,0.610,2.625,0.305
0.073,0.236,0.916,2.136,2.502,0.610
0.067,0.242,0.937,1.282,0.854,1.099
0.062,0.255,0.932,0.916,0.000,2.014
0.062,0.266,0.946,0.916,-0.366,2.258
0.069,0.261,0.979,0.671,-1.038,1.465
0.064,0.264,0.972,0.977,0.122,1.404
0.062,0.248,0.960,1.343,1.038,1.160
0.068,0.254,0.963,0.549,1.465,1.587
0.073,0.262,0.959,-0.732,2.197,2.014
0.079,0.267,0.938,-0.793,3.540,1.770
-2.082,-0.064,2.302,7.874,-645.142,233.948
-2.080,0.063,3.442,16.052,-641.113,246.887
-1.779,0.691,4.000,9.766,-587.891,266.602
-1.258,1.989,4.000,8.301,-480.225,278.625
-0.676,3.018,3.901,3.113,-342.773,234.375
-0.310,3.000,3.488,-61.340,-212.402,124.451
-0.325,2.204,3.363,-162.903,-113.831,1.404
-0.484,1.217,3.167,-215.820,-34.485,-82.581
-0.634,0.303,2.593,-195.312,27.283,-116.760
-0.668,-0.299,1.885,-131.531,50.232,-106.445
-0.561,-0.433,1.535,-57.251,24.475,-67.261
-0.463,-0.292,1.557,-0.427,-12.756,-26.855
-0.345,-0.287,1.511,28.931,-29.419,-2.258
-0.194,0.054,1.517,28.625,-29.846,22.217
-0.077,0.341,1.542,13.977,-23.132,35.156
-0.020,0.492,1.508,7.629,-11.963,30.762
-0.016,0.571,1.425,8.850,1.526,21.362
-0.020,0.501,1.309,11.292,14.099,8.423
-0.004,0.411,1.142,13.367,25.635,-1.160
0.010,0.388,0.964,14.099,34.180,-5.127
0.009,0.363,0.823,12.512,36.438,-8.118
0.027,0.255,0.759,9.338,34.058,-11.597
0.050,0.219,0.670,7.446,30.457,-10.254
0.067,0.218,0.622,6.531,25.208,-6.348
0.069,0.173,0.659,4.822,15.930,-4.211
0.082,0.162,0.689,3.906,7.812,-0.671
0.094,0.213,0.738,4.578,1.770,4.395
0.097,0.244,0.742,5.859,-0.793,7.324
0.099,0.267,0.799,5.188,-3.723,8.667
0.103,0.320,0.840,4.272,-5.310,10.071
0.098,0.330,0.868,2.991,-4.822,8.850
0.081,0.336,0.896,2.441,-4.272,6.897
0.063,0.349,0.910,1.892,-3.601,5.859
0.061,0.364,0.930,1.343,-3.113,4.395
0.044,0.365,0.911,2.625,-1.770,2.441
0.039,0.332,0.918,2.747,-2.075,0.549
0.037,0.322,0.977,2.380,-4.150,0.183
0.043,0.311,1.000,2.441,-4.028,0.244
0.040,0.311,0.970,4.517,-2.991,0.488
0.024,0.306,1.006,6.531,-4.150,0.610
0.038,0.304,1.028,7.202,-3.845,0.000
0.033,0.288,1.020,7.263,-1.282,-0.671
0.032,0.283,1.029,5.188,0.488,-0.488
0.026,0.283,1.028,2.930,2.747,0.061
0.012,0.263,0.997,2.014,5.554,-0.122
0.011,0.239,0.964,1.770,6.836,0.549
0.013,0.253,0.933,2.319,5.371,2.747
0.024,0.288,0.899,3.357,3.723,4.639
0.042,0.312,0.902,3.662,1.099,4.639
0.051,0.311,0.928,4.944,-0.671,3.052
0.041,0.280,0.946,5.310,-0.549,0.977
0.039,0.274,0.923,3.601,0.793,0.061
0.031,0.277,0.904,1.831,1.343,-0.061
0.029,0.252,0.920,0.610,0.122,-0.732
0.024,0.258,0.925,0.061,-0.610,-0.305
0.027,0.267,0.922,0.916,-0.671,0.488
0.029,0.259,0.947,1.709,-1.892,0.427
0.028,0.270,0.966,2.075,-1.648,0.977
0.032,0.281,0.945,1.709,0.183,1.343
0.037,0.300,0.926,1.160,1.099,1.099
0.032,0.285,0.915,1.282,1.038,0.122
0.024,0.284,0.908,-0.122,0.427,-0.183
0.026,0.286,0.937,-1.526,-1.465,0.244
0.029,0.280,0.960,-1.221,-1.892,0.610
0.034,0.287,0.948,-0.366,-0.732,0.732
0.033,0.285,0.960,0.549,-0.488,0.977
0.040,0.279,0.977,1.099,-0.366,1.038
0.038,0.295,0.957,2.563,0.854,1.465
0.037,0.268,0.947,4.211,1.282,0.610
0.041,0.268,0.965,4.150,0.732,0.793
0.042,0.292,0.947,4.150,1.770,1.465
0.038,0.291,0.926,3.418,2.686,0.488
0.041,0.284,0.937,2.502,1.831,-0.427
0.044,0.291,0.946,1.709,1.404,-0.549
0.043,0.289,0.928,1.465,2.075,-0.854
0.044,0.275,0.931,1.587,1.587,-1.465
0.046,0.267,0.910,2.686,1.221,-1.282
0.046,0.266,0.908,3.052,0.061,-0.671
0.047,0.268,0.943,2.075,-1.770,-0.183
0.041,0.279,0.942,1.160,-1.343,-0.061
0.032,0.282,0.957,1.282,-0.610,-0.549
0.035,0.285,0.959,1.526,-0.061,-1.038
0.032,0.287,0.959,3.357,0.427,-1.099
0.032,0.273,0.975,4.028,1.038,-1.648
0.023,0.256,0.960,4.028,2.197,-2.136
0.027,0.255,0.935,3.662,3.296,-1.770
0.029,0.259,0.922,2.014,2.869,-1.221
0.034,0.261,0.934,0.610,1.648,-0.916
0.027,0.258,0.948,0.305,0.916,-0.854
0.027,0.266,0.932,0.366,1.343,-0.671
0.031,0.277,0.929,0.610,1.221,-0.732
0.029,0.259,0.958,1.892,0.671,-1.526
0.030,0.255,0.932,2.747,1.282,-1.709
0.030,0.256,0.940,2.014,1.038,-0.916
0.035,0.261,0.943,1.953,0.366,-0.366
0.033,0.253,0.959,1.526,0.061,-0.244
0.039,0.258,0.966,1.526,0.122,0.305
0.042,0.275,0.953,2.075,1.282,0.732
0.044,0.275,0.942,3.418,1.892,0.305
0.043,0.269,0.933,4.639,1.953,-0.427
0.047,0.268,0.924,4.639,1.648,-0.916
0.047,0.262,0.946,4.944,0.854,-1.099
0.046,0.250,0.943,5.127,0.916,-1.587
0.043,0.240,0.934,4.333,1.526,-1.221
0.045,0.252,0.949,3.540,0.732,-0.366
0.047,0.262,0.940,3.662,0.977,0.183
0.046,0.260,0.938,2.197,0.916,0.183
0.047,0.268,0.949,0.488,0.610,0.427
0.052,0.256,0.955,-0.244,0.793,0.366
0.045,0.273,0.921,1.038,1.526,0.854
0.032,0.272,0.942,2.625,0.610,0.977
0.048,0.254,0.959,1.770,0.244,-0.183
0.042,0.256,0.924,0.977,1.892,-0.427
0.038,0.246,0.933,0.366,1.038,-0.305
0.038,0.244,0.949,-0.732,-0.183,-0.122
0.034,0.243,0.954,-0.305,-0.427,0.488
0.033,0.240,0.947,0.610,0.122,0.916
0.035,0.256,0.933,0.427,0.427,1.404
0.038,0.271,0.951,0.366,0.000,1.709
-1.544,-0.030,1.512,89.294,-562.744,153.381
-1.497,0.110,2.312,70.129,-570.251,151.123
-1.371,0.403,3.234,31.799,-572.754,150.635
-0.870,0.742,4.000,-30.029,-540.344,156.067
-0.451,1.306,4.000,-94.543,-398.926,152.466
-0.256,1.495,3.422,-131.653,-225.281,113.708
-0.302,1.117,2.510,-151.062,-119.141,58.044
-0.335,0.613,2.019,-145.142,-92.041,22.827
-0.312,0.267,1.998,-121.277,-104.309,15.320
-0.185,0.214,2.020,-90.698,-111.816,23.376
-0.083,0.094,2.081,-54.443,-107.056,28.809
-0.135,0.311,1.622,-22.278,-83.801,36.621
-0.085,0.227,1.485,-13.123,-73.853,35.889
-0.039,0.378,1.546,-7.935,-82.031,36.804
-0.006,0.437,1.587,-6.104,-78.003,37.781
0.055,0.384,1.740,0.671,-76.111,30.945
-0.015,0.510,1.759,8.545,-62.622,28.687
-0.043,0.460,1.494,12.329,-40.100,22.095
0.001,0.346,1.588,9.705,-36.011,11.292
0.031,0.476,1.599,3.418,-26.306,12.817
0.051,0.473,1.450,2.075,-7.874,9.155
0.052,0.396,1.298,5.432,3.723,2.747
0.050,0.371,1.166,5.859,9.033,0.977
0.038,0.323,1.081,7.874,10.376,-0.122
0.033,0.234,1.081,10.254,7.141,-2.380
0.072,0.231,1.034,12.756,7.141,-1.038
0.068,0.235,0.962,12.085,8.240,0.671
0.057,0.248,0.986,7.629,4.395,1.770
0.068,0.272,1.040,3.418,2.075,2.136
0.070,0.254,0.992,2.319,6.775,0.427
0.068,0.236,0.907,1.526,11.353,-0.793
0.083,0.257,0.883,-1.343,11.597,-0.305
0.097,0.281,0.891,-4.028,10.437,-0.244
0.089,0.245,0.898,-2.075,10.742,-2.319
0.076,0.202,0.868,2.380,12.207,-4.028
0.074,0.196,0.820,5.859,12.634,-3.296
0.075,0.189,0.810,6.287,9.521,-1.892
0.077,0.182,0.867,5.676,4.211,-0.488
0.082,0.201,0.882,5.981,2.136,1.221
0.088,0.205,0.875,6.348,1.953,2.319
0.098,0.226,0.867,6.042,0.854,3.052
0.095,0.244,0.865,5.310,-0.366,3.540
0.087,0.242,0.902,3.784,-2.991,3.174
0.079,0.244,0.956,1.831,-5.005,3.296
0.079,0.248,0.968,1.587,-4.578,2.808
0.078,0.251,0.977,1.526,-3.784,1.892
0.078,0.270,1.011,1.953,-3.845,0.977
0.069,0.238,1.030,3.784,-3.113,-1.099
0.060,0.216,1.007,6.104,-1.099,-2.075
0.060,0.222,0.990,7.019,0.610,-1.587
0.061,0.221,0.982,6.042,1.221,-1.404
0.062,0.210,0.994,4.639,0.916,-1.587
0.073,0.222,0.990,3.357,0.671,-1.099
0.066,0.198,0.989,2.808,0.366,-1.160
0.061,0.196,0.995,1.953,-0.488,-0.732
0.063,0.211,0.996,2.197,-0.183,0.122
0.057,0.194,0.987,2.930,0.732,-0.488
0.054,0.189,0.981,2.869,1.404,-0.610
0.060,0.183,0.989,2.563,1.770,-0.061
0.060,0.189,0.976,2.930,2.625,0.549
0.058,0.202,0.949,4.211,4.089,0.732
0.059,0.207,0.941,4.456,4.272,0.183
0.067,0.218,0.929,4.822,3.479,-0.061
0.075,0.209,0.933,4.883,2.380,-0.793
0.079,0.210,0.955,2.991,1.160,-0.793
0.073,0.211,0.970,1.770,1.160,-0.488
0.079,0.202,0.956,2.136,2.319,-0.671
0.078,0.189,0.936,2.747,2.625,-0.244
0.087,0.190,0.937,2.808,2.136,0.977
0.092,0.210,0.940,2.502,1.587,2.014
0.090,0.192,0.932,3.601,1.709,1.770
0.088,0.182,0.921,3.784,1.343,1.770
0.091,0.201,0.930,2.502,-0.061,2.747
0.090,0.208,0.947,1.221,-1.160,3.540
0.085,0.201,0.960,0.610,-2.014,3.418
0.091,0.229,0.975,0.183,-2.136,4.028
0.090,0.242,0.972,1.099,-1.038,3.784
0.089,0.241,0.973,1.526,0.305,2.563
0.092,0.246,0.964,2.319,1.587,1.465
0.083,0.221,0.954,3.418,2.258,-0.244
0.070,0.208,0.954,3.113,1.953,-0.793
0.063,0.203,0.948,2.563,1.160,-0.671
0.065,0.189,0.937,1.770,0.977,-0.488
0.063,0.194,0.958,0.854,-0.610,0.488
0.067,0.212,0.971,0.732,-1.160,1.465
0.065,0.208,0.975,1.648,-1.038,1.282
0.066,0.195,0.970,2.014,-0.854,0.854
0.069,0.216,0.944,2.014,-0.183,1.465
0.078,0.217,0.958,0.183,-0.793,1.282
0.078,0.201,0.982,-0.732,-1.160,0.488
0.069,0.207,0.955,0.427,0.183,0.305
0.067,0.208,0.926,2.136,1.160,0.061
0.070,0.181,0.958,2.380,-0.366,-0.488
0.071,0.188,0.958,2.014,-0.549,0.122
0.069,0.198,0.944,2.014,0.122,0.854
0.072,0.193,0.958,1.221,-0.610,1.038
0.073,0.200,0.951,0.916,-0.610,1.648
0.076,0.207,0.947,0.671,-0.732,1.953
0.075,0.202,0.970,0.732,-1.587,1.465
0.079,0.202,0.957,1.953,-1.221,1.343
0.084,0.202,0.953,2.808,-0.732,1.465
0.087,0.205,0.975,1.709,-0.854,1.465
0.086,0.200,0.991,0.793,-0.366,0.977
0.086,0.219,0.963,2.014,1.160,1.343
0.084,0.205,0.953,3.662,1.404,0.610
0.082,0.194,0.953,3.052,1.038,0.000
0.080,0.199,0.943,1.892,0.977,0.427
0.079,0.204,0.943,0.732,0.916,0.610
0.078,0.198,0.968,-0.671,0.183,0.366
0.075,0.188,0.978,-0.366,0.366,0.122
0.068,0.201,0.938,0.732,1.587,0.183
0.069,0.210,0.941,0.610,0.671,0.610
0.073,0.200,0.980,0.610,-0.916,0.122
0.071,0.193,0.979,0.916,-0.305,-0.244
0.073,0.189,0.968,2.136,0.671,-0.244
0.075,0.191,0.953,3.174,0.549,-0.122
0.067,0.196,0.935,2.319,0.549,0.366
0.071,0.188,0.970,0.671,-0.427,0.305
0.077,0.179,0.981,-0.244,0.061,0.183
-1.564,-0.175,1.693,91.736,-612.305,116.882
-1.530,-0.070,2.470,81.543,-611.877,123.596
-1.336,0.193,3.662,53.528,-598.999,132.263
-0.930,0.645,4.000,15.808,-530.334,137.878
-0.585,1.205,4.000,-22.827,-398.804,129.700
-0.391,1.287,3.553,-76.721,-257.874,88.745
-0.320,0.968,2.774,-135.620,-155.945,38.879
-0.325,0.646,2.358,-172.974,-112.488,9.583
-0.338,0.338,2.148,-169.312,-100.769,-4.700
-0.293,0.036,1.958,-134.644,-95.337,-10.010
-0.165,-0.193,1.750,-87.830,-95.154,-5.127
-0.254,-0.201,1.682,-45.959,-97.900,9.338
-0.166,-0.175,1.489,-29.541,-93.384,27.832
-0.120,0.155,1.507,-28.687,-90.210,47.424
-0.080,0.333,1.668,-31.555,-89.111,55.664
-0.055,0.297,1.802,-25.879,-82.886,49.133
-0.081,0.382,1.786,-15.259,-71.045,46.936
-0.071,0.517,1.697,-7.935,-58.411,44.678
-0.030,0.524,1.677,-6.287,-49.072,35.278
-0.013,0.475,1.630,-6.653,-39.673,23.926
0.012,0.468,1.580,-6.775,-28.503,17.029
0.031,0.463,1.520,-6.409,-17.944,11.047
0.051,0.424,1.414,-5.432,-6.531,4.150
0.058,0.337,1.312,-2.625,2.136,-2.380
0.064,0.260,1.179,-0.488,9.705,-4.761
0.083,0.225,1.149,-0.610,11.230,-3.906
0.079,0.264,1.198,0.610,9.644,-1.587
0.093,0.274,1.123,5.554,13.733,-1.465
0.106,0.238,1.034,10.437,17.883,-3.357
0.098,0.232,0.942,10.681,19.836,-2.930
0.091,0.237,0.938,7.874,17.273,-1.465
0.086,0.239,0.917,5.981,15.320,-1.526
0.094,0.228,0.834,3.662,16.785,-2.197
0.093,0.214,0.849,1.404,13.306,-2.319
0.084,0.203,0.895,1.587,8.179,-1.648
0.099,0.213,0.846,3.601,7.751,-1.099
0.105,0.217,0.851,4.395,5.798,-0.671
0.117,0.213,0.876,4.761,3.235,-0.732
0.112,0.210,0.872,5.249,2.991,-0.977
0.104,0.203,0.867,4.456,3.601,-1.526
0.096,0.197,0.865,2.869,4.211,-1.770
0.082,0.182,0.861,1.465,4.150,-2.197
0.085,0.192,0.872,0.977,3.052,-1.770
0.077,0.181,0.866,2.197,2.625,-1.343
0.079,0.185,0.868,1.160,1.526,-0.244
0.077,0.191,0.888,0.610,-0.061,1.221
0.076,0.190,0.896,2.319,-1.648,1.831
0.075,0.194,0.897,4.639,-3.174,2.197
0.071,0.190,0.930,5.737,-5.737,2.197
0.073,0.199,0.952,5.737,-6.836,2.441
0.070,0.205,0.978,4.089,-6.714,2.502
0.069,0.205,1.005,1.526,-5.737,2.319
0.066,0.208,1.036,-0.793,-4.333,2.197
0.057,0.226,1.016,-0.916,-1.465,2.075
0.054,0.240,1.001,0.854,0.244,1.343
0.059,0.220,1.014,1.404,0.000,0.122
0.063,0.215,1.043,1.587,-0.061,-0.122
0.069,0.209,1.037,0.916,1.587,0.122
0.059,0.214,1.007,0.366,3.052,0.427
0.062,0.223,0.989,1.709,3.296,0.916
0.068,0.226,0.990,3.235,2.563,0.610
0.083,0.236,0.970,3.784,2.502,0.366
0.088,0.234,0.996,2.808,1.587,-0.244
0.083,0.231,0.987,1.953,1.221,-1.099
0.084,0.221,1.000,1.160,1.892,-2.136
0.095,0.220,0.950,-0.427,4.761,-2.991
0.093,0.231,0.916,-2.441,6.409,-2.808
0.095,0.214,0.964,-4.395,3.784,-2.991
0.099,0.211,0.951,-3.235,3.601,-2.930
0.094,0.194,0.927,-1.160,4.395,-2.869
0.094,0.176,0.928,0.549,2.991,-2.563
0.094,0.190,0.915,1.282,2.502,-1.465
0.093,0.183,0.910,-0.183,1.892,-0.977
0.093,0.177,0.937,-1.099,0.305,-0.549
0.092,0.196,0.915,-0.488,0.549,0.366
0.092,0.198,0.912,0.610,0.305,0.427
0.093,0.202,0.934,0.610,-0.854,0.366
0.090,0.212,0.938,0.854,-1.160,0.244
0.086,0.214,0.934,1.770,-0.732,0.122
0.083,0.198,0.938,1.526,-0.793,-0.305
0.087,0.183,0.975,1.709,-1.465,-0.305
0.078,0.180,0.964,1.831,-0.610,0.366
0.067,0.188,0.953,1.038,-0.122,0.854
0.075,0.188,0.959,-0.122,-0.671,1.160
0.075,0.181,0.984,-0.549,-1.831,1.343
0.072,0.179,0.975,0.977,-1.343,1.587
0.074,0.197,0.951,2.136,-0.549,2.136
0.075,0.188,0.959,1.526,-0.610,1.831
0.080,0.197,0.984,0.977,-1.221,1.831
0.078,0.211,0.984,1.953,-0.366,2.136
0.072,0.200,0.970,2.136,0.793,1.282
0.076,0.206,0.960,1.343,1.343,1.160
0.083,0.214,0.964,0.488,1.160,1.343
0.077,0.203,0.973,-0.671,0.732,1.038
0.076,0.192,0.968,0.732,1.038,0.610
0.078,0.188,0.953,2.014,1.221,0.671
0.077,0.199,0.947,1.526,1.404,1.282
0.075,0.193,0.962,1.831,1.038,1.343
0.080,0.189,0.971,2.869,0.549,0.977
0.081,0.204,0.962,4.456,1.099,1.343
0.087,0.197,0.955,5.432,1.343,0.916
0.084,0.199,0.952,4.089,1.770,0.977
0.087,0.215,0.955,1.953,2.197,1.648
0.091,0.213,0.975,0.427,2.136,1.221
0.093,0.219,0.975,0.671,2.930,0.732
0.084,0.204,0.942,2.380,4.089,-0.305
0.087,0.175,0.938,2.686,3.235,-0.916
0.089,0.197,0.957,1.709,0.916,0.793
0.098,0.207,0.976,0.610,0.000,1.648
0.099,0.224,0.963,1.099,1.099,1.343
0.093,0.218,0.938,0.916,2.502,0.427
0.092,0.194,0.954,0.427,1.709,-0.854
0.089,0.196,0.965,-0.061,1.648,-0.793
0.083,0.198,0.956,-0.122,2.563,-0.488
0.079,0.186,0.971,-0.061,1.587,-0.916
0.079,0.190,0.948,0.854,1.587,-0.488
0.086,0.198,0.956,0.366,1.099,0.061
0.090,0.212,0.972,-1.343,0.488,0.427
0.087,0.209,0.980,-0.977,1.038,-0.305
-1.727,-0.153,1.747,94.177,-624.695,160.095
-1.624,0.063,2.885,93.567,-637.756,168.274
-1.377,0.320,3.616,86.609,-596.313,169.434
-1.089,0.743,3.832,63.293,-508.972,164.490
-0.722,1.060,3.999,12.573,-412.354,144.836
-0.438,1.353,3.813,-58.350,-301.758,112.610
-0.229,1.437,3.402,-128.174,-194.702,73.975
-0.208,1.156,2.985,-172.729,-113.220,25.879
-0.229,0.660,2.696,-181.946,-63.904,-14.282
-0.310,0.222,2.344,-161.255,-34.424,-33.142
-0.300,-0.061,1.898,-121.460,-16.785,-30.701
-0.258,-0.068,1.620,-74.463,-20.020,-13.367
-0.166,-0.001,1.572,-38.025,-34.302,4.272
-0.103,0.021,1.668,-15.564,-46.387,15.503
-0.054,0.048,1.692,-3.662,-45.837,23.743
-0.009,0.198,1.640,-3.845,-37.476,32.898
0.045,0.398,1.573,-8.423,-28.320,38.818
0.082,0.548,1.519,-11.292,-21.118,36.072
0.128,0.591,1.497,-11.841,-13.062,26.245
0.149,0.568,1.429,-7.507,-3.418,14.099
0.132,0.505,1.251,-2.319,8.911,2.502
0.121,0.359,1.081,-0.244,18.677,-6.836
0.109,0.265,0.953,-0.305,22.461,-10.315
0.118,0.180,0.854,-0.244,22.461,-8.789
0.134,0.145,0.830,3.723,17.700,-5.005
0.126,0.146,0.814,9.460,12.207,-0.244
0.132,0.063,0.809,13.306,8.301,4.211
0.138,0.168,0.792,13.916,5.981,12.024
0.162,0.350,0.752,8.057,5.005,18.860
0.176,0.368,0.833,5.798,-1.221,13.306
0.169,0.366,0.850,4.944,-2.563,7.385
0.161,0.368,0.878,3.662,-1.892,3.235
0.143,0.318,0.904,2.258,-1.343,-1.160
0.117,0.249,0.864,1.648,0.671,-4.211
0.100,0.214,0.839,0.916,0.977,-4.089
0.095,0.175,0.855,0.977,-1.587,-3.174
0.098,0.156,0.875,2.869,-2.869,-1.465
0.102,0.163,0.898,5.615,-3.723,1.343
0.107,0.192,0.910,9.521,-3.845,3.784
0.117,0.203,0.919,13.794,-3.540,4.883
0.117,0.224,0.909,16.602,-3.052,5.432
0.119,0.250,0.889,17.029,-3.174,5.676
0.127,0.264,0.899,13.123,-4.272,5.371
0.127,0.279,0.933,8.301,-5.981,4.456
0.114,0.239,0.979,5.066,-7.263,2.441
0.097,0.227,1.006,4.272,-7.812,1.038
0.091,0.240,0.964,4.272,-5.554,1.221
0.086,0.213,0.997,3.235,-6.531,0.061
0.109,0.208,1.053,1.099,-7.080,0.183
0.097,0.235,1.029,0.793,-4.700,1.404
0.094,0.255,1.029,0.549,-3.601,1.709
0.096,0.245,1.049,1.953,-4.150,0.610
0.104,0.247,1.027,3.479,-2.380,-0.244
0.102,0.254,1.007,3.418,-0.244,-1.038
0.096,0.235,0.991,2.258,1.221,-2.625
0.109,0.208,0.998,1.099,2.075,-3.540
0.095,0.213,0.985,0.488,2.747,-3.357
0.079,0.199,0.943,0.427,3.235,-3.052
0.081,0.196,0.974,0.549,0.793,-2.808
0.090,0.191,0.948,1.160,1.404,-2.136
0.091,0.188,0.929,1.465,1.709,-1.404
0.092,0.194,0.937,0.366,0.732,-0.244
0.099,0.221,0.933,-0.244,0.671,0.732
0.103,0.211,0.940,-1.038,0.916,0.244
0.106,0.208,0.925,-1.221,1.282,0.061
0.109,0.215,0.917,-1.160,0.854,0.366
0.110,0.204,0.922,-1.099,-0.183,0.122
0.115,0.219,0.929,-1.526,-0.854,0.488
0.116,0.222,0.935,-1.892,-0.793,0.732
0.113,0.215,0.935,-1.221,-0.671,0.305
0.115,0.215,0.936,-0.549,-0.977,0.549
0.114,0.210,0.960,-0.244,-1.892,1.160
0.112,0.211,0.956,0.854,-1.709,1.648
0.116,0.239,0.929,1.221,-0.977,2.686
0.116,0.273,0.928,-0.488,-1.221,2.625
0.116,0.257,0.969,-1.831,-2.380,0.366
0.111,0.231,0.996,-1.770,-1.831,-1.160
0.105,0.220,0.971,-0.366,-0.183,-1.526
0.087,0.217,0.937,0.732,0.000,-1.038
0.088,0.208,0.950,0.732,-1.526,-0.793
0.093,0.201,0.949,0.366,-1.892,-0.549
0.091,0.201,0.968,0.244,-2.380,0.183
0.094,0.197,0.985,1.587,-2.747,0.183
0.080,0.198,0.963,2.991,-1.465,0.488
0.077,0.188,0.968,3.906,-0.916,0.854
0.081,0.201,0.978,4.272,-0.549,1.892
0.071,0.196,0.956,3.052,1.038,2.380
0.079,0.181,0.975,1.404,1.038,2.808
0.086,0.211,0.948,-0.122,1.892,4.028
0.092,0.229,0.933,-1.465,2.319,4.333
0.098,0.232,0.959,-1.770,0.854,3.662
0.102,0.238,0.953,-1.465,0.488,2.625
0.105,0.239,0.949,-0.732,0.549,1.343
0.098,0.216,0.944,0.366,-0.061,-0.061
0.103,0.202,0.952,0.854,-0.427,-0.244
0.101,0.211,0.962,0.977,-0.671,0.488
0.105,0.207,0.952,0.366,0.000,0.732
0.094,0.203,0.940,0.549,0.305,0.854
0.103,0.212,0.942,0.732,0.183,1.465
0.097,0.224,0.961,1.282,-0.610,1.587
0.109,0.212,0.961,0.366,0.366,1.160
0.117,0.212,0.965,-0.488,1.343,1.038
0.106,0.220,0.933,-0.488,2.319,1.709
0.107,0.220,0.946,-1.343,0.977,1.892
0.105,0.215,0.950,-0.671,0.183,2.014
0.100,0.217,0.942,0.854,0.305,2.075
0.099,0.211,0.952,1.343,-0.305,2.075
0.101,0.233,0.971,0.427,-0.549,2.686
0.100,0.242,0.968,-0.366,0.610,2.319
0.094,0.244,0.943,0.061,1.587,1.221
0.090,0.230,0.936,0.732,0.732,0.122
0.095,0.205,0.953,-0.061,-0.549,-0.183
0.095,0.205,0.971,-1.038,-0.488,0.488
0.093,0.212,0.962,-2.014,0.732,1.282
0.093,0.218,0.960,-1.892,1.648,1.282
0.092,0.219,0.958,-2.014,2.197,1.038
0.089,0.213,0.946,-1.404,2.319,0.793
0.090,0.221,0.937,-0.977,1.831,1.160
0.093,0.216,0.949,-0.549,0.977,1.282
-2.027,-0.206,1.544,125.305,-641.174,166.443
-1.961,-0.008,2.794,103.333,-655.884,176.697
-1.681,0.176,3.924,55.786,-621.094,174.805
-1.338,0.487,4.000,-3.052,-515.564,168.579
-1.079,0.987,4.000,-66.711,-371.399,153.076
-0.927,1.554,3.445,-110.352,-251.343,131.836
-0.782,1.769,3.102,-140.747,-182.495,91.980
-0.640,1.387,2.961,-142.639,-142.517,33.203
-0.548,0.736,2.766,-118.530,-104.309,-16.235
-0.532,0.253,2.542,-84.961,-70.374,-35.950
-0.512,-0.031,2.206,-59.570,-41.931,-31.738
-0.385,-0.180,1.891,-42.725,-24.780,-21.057
-0.302,-0.074,1.851,-26.794,-26.733,-2.686
-0.208,0.063,1.828,-11.902,-27.710,12.756
-0.152,0.168,1.706,2.380,-19.409,20.020
-0.088,0.327,1.552,10.681,-9.949,25.391
-0.046,0.421,1.435,13.367,-3.479,22.888
-0.009,0.484,1.356,10.437,1.526,18.127
0.008,0.488,1.263,5.066,9.399,10.254
0.005,0.413,1.184,1.221,16.785,0.916
0.015,0.348,1.086,-0.671,22.339,-5.798
0.011,0.278,0.953,-0.488,27.039,-9.644
0.011,0.179,0.876,-2.502,27.039,-11.353
0.016,0.121,0.848,-0.671,22.705,-8.789
0.036,0.112,0.789,1.953,19.409,-4.089
0.034,-0.013,0.725,4.089,16.663,0.183
0.078,0.169,0.750,-0.488,11.047,8.789
0.092,0.319,0.727,-1.465,7.446,13.916
0.078,0.233,0.813,-1.099,1.038,5.188
0.072,0.182,0.799,-1.099,0.000,1.648
0.077,0.200,0.820,1.587,-1.404,3.052
0.070,0.213,0.845,-0.183,-3.296,3.601
0.064,0.237,0.829,-4.517,-2.869,3.540
0.053,0.257,0.846,-5.615,-4.761,3.723
0.051,0.245,0.883,-2.869,-7.996,2.563
0.053,0.234,0.940,1.587,-10.376,1.770
0.051,0.232,0.967,6.470,-10.132,1.465
0.049,0.210,0.956,9.460,-7.812,0.671
0.038,0.190,0.939,9.338,-5.737,0.061
0.033,0.189,0.929,8.057,-5.676,0.549
0.035,0.212,0.954,5.188,-6.775,1.831
0.028,0.235,0.988,2.014,-7.568,2.014
0.033,0.238,0.998,0.244,-6.958,0.977
0.029,0.229,0.991,-1.526,-6.226,-0.366
0.016,0.234,1.010,-3.052,-7.019,-0.366
0.017,0.228,1.038,-0.549,-8.667,-0.671
0.025,0.244,1.041,3.601,-8.118,-0.916
0.022,0.217,1.024,6.287,-6.226,-2.197
0.024,0.190,1.041,4.822,-5.676,-2.747
0.021,0.212,1.038,3.235,-4.333,-1.770
0.012,0.219,1.025,1.404,-2.747,-1.465
0.007,0.209,1.024,1.221,-2.380,-2.441
0.006,0.220,1.011,3.174,-1.892,-2.625
0.004,0.212,1.016,3.662,-1.770,-3.174
0.000,0.178,1.034,3.357,-1.526,-4.028
-0.005,0.167,1.020,3.479,-0.488,-3.845
0.008,0.156,0.988,3.662,0.732,-3.418
-0.002,0.151,0.980,2.380,-0.122,-2.563
-0.004,0.158,0.967,0.061,-0.427,-0.854
0.006,0.173,0.984,-0.854,-1.282,0.305
0.013,0.180,0.961,-0.549,0.061,0.732
0.006,0.176,0.930,-0.793,1.160,0.122
0.010,0.181,0.927,-1.892,0.427,0.244
0.023,0.182,0.975,-2.136,-1.160,0.244
0.022,0.183,0.968,-0.916,0.000,0.000
0.026,0.167,0.915,0.854,1.709,-0.610
0.029,0.181,0.915,-0.183,0.244,-0.244
0.032,0.191,0.965,-1.892,-2.136,0.610
0.039,0.190,0.965,-0.366,-1.831,0.183
0.042,0.191,0.939,0.793,-0.854,0.366
0.033,0.196,0.943,1.099,-1.648,0.671
0.034,0.177,0.951,2.930,-2.075,-0.183
0.034,0.183,0.976,2.136,-2.319,0.305
0.027,0.177,0.985,0.671,-1.709,0.732
0.022,0.179,0.986,0.122,-1.099,0.977
0.017,0.196,0.948,-0.427,0.061,1.465
0.016,0.198,0.954,-1.953,-0.732,1.587
0.015,0.200,0.986,-2.502,-2.258,1.404
0.016,0.213,0.974,-3.113,-1.099,1.526
0.022,0.216,0.978,-3.296,-0.732,1.221
0.017,0.213,0.988,-1.465,-1.160,0.366
-0.005,0.197,0.939,-0.366,-0.183,-0.305
0.001,0.184,0.974,-0.183,-1.770,-0.366
0.006,0.170,1.000,-0.122,-2.563,-0.305
0.000,0.178,0.963,-1.221,0.305,0.610
-0.009,0.193,0.972,-2.014,-0.183,1.465
-0.006,0.206,0.987,-1.770,-0.793,1.953
-0.004,0.194,0.990,-1.282,-0.183,1.587
-0.002,0.189,0.963,-0.610,0.916,1.587
-0.000,0.209,0.966,-0.183,0.671,2.502
0.005,0.207,0.970,0.366,0.061,2.502
0.008,0.202,0.973,1.404,0.000,1.770
0.015,0.206,0.965,1.404,0.427,1.770
0.017,0.222,0.966,0.427,0.488,1.831
0.016,0.216,0.955,-0.793,0.549,0.854
0.021,0.211,0.969,-1.465,0.000,0.122
0.023,0.223,0.981,-0.977,0.000,-0.061
0.018,0.186,0.978,0.793,1.099,-1.282
0.017,0.170,0.950,2.319,2.197,-1.343
0.016,0.195,0.930,4.211,1.770,0.366
0.023,0.195,0.955,4.272,0.122,0.488
0.024,0.203,0.988,3.723,-0.793,0.671
0.021,0.206,0.972,3.296,0.793,0.488
0.019,0.204,0.954,2.808,1.831,0.061
0.019,0.190,0.958,2.502,1.282,-0.427
0.019,0.185,0.940,1.770,1.343,-0.366
0.019,0.180,0.931,0.000,0.916,0.000
0.015,0.179,0.968,-2.625,-0.854,0.549
0.020,0.180,0.986,-3.235,-0.854,0.732
0.017,0.193,0.973,-1.343,0.183,1.221
0.014,0.182,0.956,0.732,0.610,1.038
0.009,0.183,0.954,0.977,0.061,1.587
0.013,0.199,0.957,0.671,-0.488,2.441
0.015,0.212,0.960,0.549,-0.671,2.563
0.008,0.199,0.971,0.183,-0.549,1.709
0.004,0.182,0.980,0.122,-0.488,1.465
0.005,0.182,0.976,1.282,-0.122,1.404
0.008,0.183,0.970,2.075,0.488,1.831
0.010,0.190,0.968,1.343,0.610,2.014
-1.850,-0.509,1.170,144.531,-633.240,122.620
-1.978,-0.250,1.960,152.222,-653.320,137.085
-1.818,-0.064,2.746,139.465,-645.996,137.085
-1.702,0.159,3.688,95.642,-611.816,127.991
-1.358,0.493,4.000,6.348,-526.611,121.460
-1.028,0.717,4.000,-80.444,-407.166,108.582
-0.894,0.725,3.986,-129.944,-278.748,79.163
-0.818,0.662,3.379,-147.400,-178.894,49.622
-0.718,0.495,2.870,-141.357,-126.099,28.687
-0.611,0.251,2.711,-118.164,-105.957,15.137
-0.534,-0.030,2.566,-92.590,-93.689,9.766
-0.425,-0.283,2.558,-71.960,-80.017,10.254
-0.381,-0.260,2.475,-54.443,-63.477,25.696
-0.264,-0.168,2.314,-43.152,-43.518,39.917
-0.137,0.110,2.174,-30.762,-27.222,53.284
-0.027,0.441,1.937,-21.423,-10.010,59.998
0.051,0.648,1.727,-15.198,3.845,52.490
0.037,0.665,1.543,-9.399,12.817,35.156
0.062,0.564,1.355,-6.287,21.790,16.479
0.086,0.495,1.187,-3.479,28.992,3.723
0.063,0.425,1.049,-1.587,32.776,-3.845
0.033,0.308,0.927,0.793,32.898,-10.803
0.020,0.203,0.824,4.761,31.006,-14.038
0.033,0.137,0.786,6.165,26.733,-11.780
0.062,0.128,0.781,3.906,22.583,-7.629
0.085,0.134,0.812,0.732,19.470,-4.395
0.088,0.168,0.797,-0.732,19.165,-2.808
0.092,0.182,0.781,-1.282,19.348,-2.808
0.081,0.173,0.778,-1.892,18.555,-4.089
0.073,0.155,0.764,-2.441,16.785,-5.615
0.061,0.142,0.787,-5.859,13.733,-5.981
0.067,0.105,0.880,-9.949,9.338,-5.371
0.055,0.112,0.901,-10.742,9.644,-3.723
0.042,0.141,0.859,-8.057,11.169,-2.686
0.044,0.153,0.864,-2.502,8.545,-2.197
0.050,0.157,0.854,3.784,5.310,-2.014
0.051,0.151,0.864,7.751,2.319,-1.404
0.059,0.172,0.888,9.583,-0.183,-0.916
0.064,0.191,0.891,10.132,-0.488,-1.282
0.072,0.184,0.880,9.644,0.610,-2.625
0.068,0.165,0.900,7.812,0.977,-3.906
0.061,0.121,0.898,6.165,1.587,-5.066
0.057,0.117,0.882,5.798,1.892,-4.700
0.042,0.090,0.878,5.615,0.305,-3.906
0.029,0.086,0.937,4.395,-2.747,-2.563
0.036,0.074,0.925,4.761,-3.601,0.061
0.017,0.103,0.950,5.859,-5.371,2.563
0.044,0.129,0.990,4.883,-6.287,5.066
0.042,0.157,0.981,5.615,-5.798,5.615
0.038,0.180,0.966,5.310,-5.249,5.798
0.038,0.192,1.020,2.930,-8.301,5.066
0.048,0.177,1.078,1.160,-9.460,3.235
0.033,0.158,1.055,3.784,-6.897,1.465
0.036,0.147,1.056,4.333,-5.127,0.732
0.027,0.147,1.044,2.319,-4.089,0.671
0.030,0.140,1.037,0.610,-3.540,0.488
0.029,0.160,1.040,0.305,-3.784,0.854
0.030,0.140,1.058,-0.610,-4.089,0.061
0.029,0.130,1.064,-0.916,-3.113,0.183
0.034,0.130,1.057,-0.671,-1.465,0.916
0.036,0.129,1.035,-0.977,0.671,1.099
0.040,0.125,1.025,-1.831,2.380,1.465
0.034,0.139,0.996,-1.465,3.662,1.709
0.036,0.143,0.943,-0.610,5.005,1.587
0.045,0.142,0.962,-1.160,3.174,1.648
0.054,0.137,0.999,-1.221,1.343,1.587
0.057,0.152,0.980,0.366,2.075,2.014
0.057,0.156,0.954,2.441,2.686,1.587
0.072,0.155,0.950,2.869,1.587,1.221
0.074,0.170,0.935,2.686,1.099,1.160
0.065,0.168,0.930,1.587,0.183,0.854
0.066,0.154,0.966,0.305,-1.099,-0.366
0.064,0.141,0.947,0.427,0.244,-1.099
0.057,0.125,0.931,1.282,1.221,-1.526
0.050,0.109,0.958,-0.183,0.305,-1.099
0.053,0.129,0.967,-0.916,0.183,0.671
0.047,0.149,0.967,-0.427,0.122,1.526
0.048,0.144,0.964,1.770,-0.610,0.732
0.048,0.155,0.977,3.845,-1.404,0.671
0.054,0.163,0.973,4.272,-1.648,0.549
0.052,0.161,0.990,2.502,-1.709,-0.305
0.052,0.134,1.014,0.488,-1.038,-1.709
0.040,0.123,0.996,-0.793,1.282,-2.258
0.035,0.113,0.982,-1.160,2.380,-1.831
0.031,0.107,0.974,-1.038,1.038,-1.038
0.023,0.122,0.985,-0.244,-0.977,0.610
0.033,0.142,1.016,2.014,-2.136,1.160
0.034,0.134,1.001,5.188,-0.427,0.244
0.039,0.140,0.992,5.493,0.427,-0.183
0.038,0.147,1.005,3.052,0.122,-0.366
0.032,0.131,0.999,2.014,1.160,-1.343
0.035,0.098,0.995,1.953,2.686,-2.319
0.031,0.080,0.974,1.587,3.967,-1.770
0.035,0.100,0.959,0.854,3.845,0.000
0.046,0.110,0.980,0.183,2.258,0.916
0.046,0.112,0.956,0.122,2.747,1.221
0.051,0.121,0.943,0.427,1.953,1.526
0.057,0.135,0.959,0.488,0.244,1.953
0.060,0.133,0.984,-0.427,-0.671,1.953
0.059,0.152,0.967,0.244,0.366,1.648
0.059,0.161,0.951,0.793,1.221,0.916
0.057,0.146,0.971,0.488,0.854,-0.366
0.058,0.138,0.983,0.854,1.038,-1.099
0.053,0.120,0.972,2.197,1.953,-1.770
0.050,0.106,0.957,1.831,2.380,-1.648
0.050,0.101,0.962,0.732,1.221,-0.916
0.054,0.113,0.956,0.305,0.427,0.366
0.041,0.132,0.976,0.427,-0.427,0.977
0.062,0.099,0.984,-0.793,-0.671,0.488
0.055,0.125,0.995,-0.427,-0.183,2.014
0.052,0.130,0.971,0.793,1.282,2.380
0.049,0.133,0.955,0.610,1.526,1.709
0.049,0.133,0.982,-0.427,0.671,1.648
0.052,0.140,1.001,-0.793,0.244,1.648
0.053,0.129,1.000,0.244,1.343,1.038
0.048,0.130,0.983,-0.061,3.113,1.038
0.039,0.126,0.972,0.000,3.174,1.221
0.039,0.117,0.975,0.549,2.014,1.160
0.042,0.131,0.981,1.282,1.404,1.892
-2.035,-0.754,1.424,161.133,-648.193,138.306
-2.106,-0.559,2.363,153.381,-666.931,165.344
-2.025,-0.129,3.235,132.080,-662.598,190.552
-1.655,0.552,4.000,99.365,-627.869,206.116
-1.086,1.316,4.000,42.175,-523.254,201.111
-0.601,1.893,4.000,-12.207,-384.888,160.217
-0.422,1.983,3.937,-70.679,-248.962,89.294
-0.417,1.468,3.271,-120.789,-137.573,10.132
-0.523,0.787,2.679,-141.968,-67.810,-47.424
-0.504,0.180,2.437,-137.329,-38.940,-72.205
-0.460,-0.226,2.185,-108.765,-23.254,-70.313
-0.398,-0.316,1.771,-68.665,-9.216,-51.819
-0.307,-0.225,1.568,-33.875,-11.047,-28.320
-0.216,-0.143,1.519,-12.512,-19.104,-10.681
-0.158,-0.008,1.493,-0.793,-20.813,3.235
-0.132,0.084,1.525,4.578,-20.813,11.658
-0.091,0.214,1.627,4.822,-20.081,16.357
-0.062,0.384,1.590,3.357,-10.315,18.311
-0.042,0.496,1.458,-0.793,2.136,14.221
-0.016,0.513,1.390,-6.165,10.559,5.798
0.009,0.451,1.345,-10.254,17.090,-3.357
0.021,0.350,1.285,-12.268,23.865,-11.230
0.033,0.237,1.182,-10.498,29.846,-15.686
0.038,0.188,1.047,-5.249,33.386,-15.137
0.055,0.136,0.922,-0.366,33.203,-12.573
0.072,0.106,0.846,4.089,27.771,-9.033
0.094,0.130,0.848,6.348,18.982,-4.150
0.124,0.151,0.889,7.568,11.047,-1.831
0.134,0.182,0.910,6.348,8.789,-0.549
0.139,0.204,0.921,2.991,9.460,0.061
0.144,0.223,0.927,-1.526,10.681,0.061
0.142,0.244,0.946,-6.714,11.902,0.366
0.135,0.224,0.969,-7.507,12.756,-0.732
0.135,0.194,0.929,-3.235,15.259,-2.197
0.108,0.201,0.862,3.296,16.052,-2.075
0.097,0.194,0.852,5.005,12.512,-1.953
0.101,0.184,0.875,6.592,8.057,-2.197
0.109,0.173,0.890,8.545,7.019,-2.136
0.114,0.150,0.869,10.071,7.080,-2.136
0.120,0.149,0.849,10.315,6.653,-1.221
0.127,0.161,0.849,9.216,6.104,0.122
0.131,0.150,0.872,8.606,5.676,0.061
0.132,0.122,0.874,7.874,6.714,-0.305
0.126,0.126,0.848,7.751,7.202,0.671
0.121,0.136,0.832,7.263,5.371,2.319
0.120,0.157,0.825,6.714,2.136,3.540
0.122,0.190,0.835,6.897,-1.526,4.456
0.125,0.207,0.862,6.897,-4.639,3.906
0.121,0.185,0.906,5.615,-6.714,2.136
0.110,0.183,0.925,4.517,-6.897,1.404
0.104,0.192,0.904,4.639,-5.798,0.854
0.089,0.160,0.911,5.127,-6.226,-0.732
0.073,0.125,0.928,3.906,-7.385,-1.465
0.073,0.118,0.958,2.930,-8.911,-0.305
0.072,0.116,1.005,3.479,-9.644,1.099
0.071,0.120,1.010,2.869,-8.972,2.563
0.040,0.146,0.993,2.563,-8.240,3.479
0.081,0.115,1.019,0.916,-9.338,3.662
0.061,0.167,1.019,0.305,-8.423,7.080
0.071,0.169,1.010,-0.610,-7.019,7.385
0.089,0.186,1.036,-2.808,-6.836,7.874
0.087,0.223,1.032,-3.296,-5.493,7.874
0.082,0.219,1.023,-3.052,-3.662,6.165
0.076,0.195,1.029,-3.174,-3.235,4.211
0.073,0.186,1.039,-1.587,-2.991,3.723
0.075,0.179,1.042,-0.183,-2.380,3.967
0.076,0.182,1.042,0.793,-1.770,4.578
0.078,0.209,1.017,1.343,-0.977,5.493
0.091,0.242,1.016,1.465,-0.610,5.798
0.096,0.241,1.023,0.732,-0.122,4.761
0.096,0.232,1.009,1.221,1.892,3.113
0.099,0.238,0.977,1.648,4.150,1.709
0.093,0.192,0.959,2.625,4.639,-0.549
0.089,0.156,0.939,2.747,3.845,-1.526
0.084,0.153,0.921,1.709,2.930,-0.183
0.092,0.161,0.922,0.244,1.404,1.038
0.092,0.172,0.916,-0.793,0.610,2.075
0.096,0.207,0.926,-1.465,-0.732,2.319
0.107,0.203,0.937,-1.831,-1.526,1.465
0.096,0.209,0.961,-0.732,-1.343,0.916
0.087,0.187,0.949,0.793,-0.061,-0.244
0.087,0.182,0.941,1.343,0.549,-0.427
0.080,0.185,0.928,1.770,0.916,0.122
0.078,0.166,0.943,1.099,0.427,0.000
0.081,0.171,0.947,1.160,-0.122,0.427
0.079,0.180,0.919,1.709,0.183,0.977
0.078,0.178,0.919,2.014,-0.427,0.488
0.080,0.161,0.953,1.648,-1.770,-0.061
0.081,0.181,0.966,0.366,-1.587,0.549
0.075,0.173,0.964,0.671,-0.610,0.305
0.073,0.165,0.980,-0.427,-0.610,-0.061
0.068,0.168,0.981,-0.977,0.122,0.610
0.061,0.158,0.978,-1.038,0.366,0.977
0.061,0.170,0.972,-0.183,0.000,1.709
0.068,0.191,0.966,1.099,-0.549,2.502
0.078,0.196,0.987,1.770,-2.075,2.319
0.084,0.189,1.002,1.770,-2.441,1.587
0.087,0.190,0.998,1.282,-0.732,1.282
0.085,0.174,0.976,1.648,0.305,0.610
0.083,0.163,0.975,2.075,0.366,0.488
0.073,0.156,0.971,0.793,0.549,1.099
0.087,0.163,0.992,0.427,0.671,1.526
0.086,0.193,0.975,1.526,1.465,2.014
0.082,0.185,0.966,2.747,1.953,1.465
0.083,0.196,0.970,3.601,1.221,0.854
0.087,0.194,0.983,3.967,0.977,0.061
0.089,0.188,0.973,4.272,1.282,-0.671
0.091,0.178,0.974,3.784,1.404,-1.343
0.084,0.164,0.964,2.869,2.014,-1.526
0.085,0.161,0.941,1.831,2.502,-1.282
0.084,0.139,0.966,1.160,1.099,-1.221
0.083,0.133,0.969,1.038,0.610,-0.549
0.080,0.145,0.958,2.441,1.160,0.671
0.086,0.157,0.969,2.808,1.038,1.465
0.082,0.153,0.974,2.930,1.160,1.587
0.087,0.169,0.979,3.784,1.770,2.136
0.085,0.170,0.972,4.395,2.686,2.014
0.080,0.157,0.966,4.395,3.174,1.404
0.081,0.162,0.963,3.113,3.418,1.709
-2.183,-0.763,1.557,165.588,-716.675,60.242
-2.235,-0.807,2.498,194.885,-737.244,65.857
-1.951,-0.603,3.641,195.496,-729.492,80.078
-1.442,-0.261,4.000,152.100,-664.978,91.309
-0.948,0.234,4.000,78.491,-528.870,90.515
-0.720,0.543,4.000,-8.728,-358.398,65.125
-0.622,0.487,3.818,-93.384,-211.914,24.597
-0.605,0.217,3.159,-156.372,-110.046,-9.460
-0.660,-0.068,2.465,-173.401,-49.805,-29.968
-0.654,-0.387,2.142,-155.762,-37.048,-36.804
-0.584,-0.714,2.159,-114.807,-51.270,-34.180
-0.517,-0.896,2.286,-71.594,-61.768,-19.409
-0.386,-0.973,2.394,-42.358,-62.073,1.099
-0.266,-0.822,2.594,-29.053,-58.044,26.306
-0.073,-0.318,2.466,-24.414,-34.851,53.589
-0.004,0.360,1.839,-17.334,3.601,70.557
0.009,0.618,1.369,-17.883,28.137,57.617
0.090,0.555,1.115,-28.870,36.194,31.372
0.086,0.396,1.200,-35.828,28.503,9.521
0.102,0.189,1.169,-28.259,31.982,-4.883
0.099,0.078,1.006,-13.794,42.664,-9.277
0.091,0.072,0.839,-4.456,47.241,-7.019
0.098,0.063,0.739,0.916,45.105,-4.761
0.105,0.060,0.727,3.601,34.424,-3.967
0.122,0.062,0.733,4.395,27.100,-3.052
0.136,0.063,0.747,5.188,22.644,-2.747
0.127,0.049,0.711,5.005,19.470,-2.686
0.125,0.020,0.707,2.502,14.404,-2.625
0.139,0.015,0.727,-1.099,8.667,-1.831
0.138,0.003,0.806,-4.333,2.380,-1.587
0.135,-0.018,0.855,-6.775,0.549,-1.465
0.126,-0.002,0.850,-7.629,2.563,0.305
0.109,0.025,0.794,-7.385,3.357,1.953
0.101,0.025,0.805,-5.737,-0.732,1.953
0.096,0.027,0.883,-2.747,-7.812,1.831
0.100,0.062,0.887,2.075,-10.376,2.197
0.097,0.026,0.923,4.700,-12.329,0.000
0.090,0.009,0.963,3.418,-13.916,-1.160
0.081,-0.014,0.981,4.150,-13.611,-1.465
0.073,-0.041,0.994,5.371,-12.573,-1.648
0.065,-0.041,0.996,5.005,-10.437,-0.427
0.057,-0.043,1.002,3.723,-8.972,0.732
0.035,-0.042,0.996,3.967,-8.423,1.526
0.032,-0.028,1.009,3.357,-10.742,2.502
0.036,-0.031,1.109,3.601,-13.733,2.991
0.028,-0.018,1.104,3.845,-11.780,3.540
0.029,-0.025,1.108,5.554,-9.460,3.723
0.039,-0.022,1.122,5.554,-7.935,3.662
0.042,0.002,1.114,4.028,-5.310,4.456
0.050,0.019,1.096,1.404,-2.625,4.211
0.049,0.043,1.050,-0.488,-0.366,3.723
0.057,0.049,1.039,-1.953,0.244,2.563
0.067,0.062,1.020,-1.892,0.488,1.160
0.068,0.052,1.001,-0.793,1.038,-0.977
0.067,0.034,1.008,0.549,0.916,-2.747
0.056,-0.005,1.010,2.747,1.282,-4.211
0.049,-0.015,0.956,5.615,3.845,-4.272
0.040,-0.037,0.945,6.104,3.662,-3.845
0.037,-0.040,0.946,4.761,2.014,-3.296
0.033,-0.061,0.953,4.883,0.977,-2.930
0.040,-0.084,0.943,5.615,0.244,-2.319
0.047,-0.079,0.939,5.127,-0.366,-0.488
0.050,-0.040,0.940,2.808,-0.732,1.465
0.053,-0.020,0.952,0.549,-1.160,1.953
0.058,-0.007,0.972,-1.404,-1.770,1.404
0.061,-0.004,0.976,-2.747,-1.709,0.854
0.056,-0.032,0.985,-3.845,-1.892,-0.122
0.057,-0.044,0.995,-3.540,-2.197,-0.061
0.055,-0.047,0.997,-1.953,-2.258,1.099
0.066,-0.043,1.016,-0.671,-2.625,2.319
0.071,-0.017,1.026,1.221,-1.892,3.540
0.071,-0.015,1.020,2.563,-0.488,3.540
0.070,-0.018,1.015,2.930,0.366,3.418
0.071,0.010,0.999,2.319,1.587,3.784
0.071,0.021,0.990,0.916,2.380,3.052
0.068,0.018,0.991,-0.305,2.075,1.770
0.070,0.029,0.999,0.244,1.709,1.221
0.067,0.007,0.996,0.671,1.953,0.000
0.059,-0.033,0.993,0.366,2.014,-0.977
0.063,-0.027,0.997,0.122,1.648,0.061
0.053,-0.022,0.982,0.366,2.075,1.099
0.047,-0.040,0.946,1.770,2.563,0.793
0.046,-0.051,0.958,2.502,0.916,1.282
0.047,-0.028,0.977,1.770,-0.671,2.441
0.044,-0.012,0.974,1.953,-0.549,2.869
0.037,0.002,0.988,1.526,-1.221,2.319
0.036,-0.008,1.001,1.404,-1.099,1.282
0.038,-0.022,0.992,2.502,0.244,0.427
0.044,-0.016,1.001,2.502,0.671,0.610
0.051,-0.020,0.997,2.380,0.916,0.366
0.048,-0.032,1.000,1.343,1.282,0.305
0.051,-0.039,0.985,1.160,1.770,0.793
0.052,-0.027,0.978,1.587,1.648,1.770
0.053,-0.020,0.968,2.197,1.038,2.319
0.057,-0.032,0.978,1.770,-0.061,2.197
0.061,-0.009,0.978,1.099,-0.610,2.930
0.069,0.007,0.983,0.488,-0.977,2.930
0.073,-0.001,1.015,0.305,-1.892,1.831
0.072,-0.012,1.016,0.610,-0.793,0.916
0.068,-0.015,0.997,0.610,0.916,0.793
0.066,-0.018,0.993,0.061,1.404,0.793
0.072,-0.032,1.004,-0.244,1.404,0.610
0.071,-0.018,0.986,0.793,2.136,1.160
0.067,-0.008,0.974,2.625,2.075,1.282
0.069,-0.009,0.992,2.502,0.977,0.549
0.068,-0.002,0.996,1.709,0.854,0.061
0.068,-0.004,0.991,1.099,1.587,-0.854
0.060,-0.024,0.991,0.854,2.014,-1.953
0.054,-0.039,0.989,0.732,2.075,-2.197
0.048,-0.035,0.969,0.366,2.258,-1.343
0.049,-0.051,0.988,1.099,0.916,-0.916
0.047,-0.053,0.999,1.343,0.244,-0.061
0.047,-0.042,0.990,2.014,1.099,1.221
0.050,-0.026,0.991,3.052,0.977,1.709
0.049,-0.031,0.991,3.174,1.038,1.343
0.056,-0.041,0.996,2.380,1.160,1.160
0.057,-0.025,0.987,1.709,1.526,1.831
0.056,-0.029,0.983,0.916,1.587,1.709
0.058,-0.026,1.001,0.061,1.160,1.526
-2.517,-0.469,1.531,154.480,-749.023,122.375
-2.485,-0.251,2.669,194.336,-787.842,126.709
-2.081,0.083,3.943,197.693,-775.024,124.268
-1.369,0.237,4.000,123.840,-683.411,110.718
-0.880,0.555,4.000,-3.662,-518.372,95.276
-0.629,0.588,4.000,-123.596,-308.960,67.749
-0.613,0.247,3.618,-196.472,-145.264,27.466
-0.670,0.098,2.546,-228.882,-57.312,8.301
-0.580,-0.120,2.025,-222.351,-40.833,4.700
-0.465,-0.156,1.958,-184.143,-62.256,14.465
-0.360,-0.197,1.784,-130.920,-71.716,25.391
-0.192,-0.184,1.628,-81.787,-75.195,35.583
-0.216,-0.087,1.505,-44.067,-82.275,46.509
-0.137,0.005,1.507,-35.339,-87.280,54.993
-0.002,0.241,1.642,-35.706,-89.050,66.345
0.054,0.500,1.715,-30.151,-80.139,70.129
0.071,0.548,1.670,-22.888,-63.416,60.181
0.081,0.536,1.635,-14.771,-50.110,47.729
0.081,0.564,1.620,-7.019,-37.903,39.551
0.094,0.559,1.551,-0.488,-22.705,30.823
0.080,0.518,1.418,5.249,-9.338,20.508
0.075,0.460,1.286,6.042,-1.831,11.597
0.090,0.427,1.180,2.258,1.221,5.249
0.087,0.401,1.141,-1.709,2.197,1.038
0.070,0.297,1.074,-3.601,4.761,-3.906
0.045,0.200,0.997,-3.113,5.615,-6.287
0.052,0.167,1.028,-2.136,-0.122,-4.150
0.064,0.184,1.111,-1.099,-4.517,-0.916
0.064,0.222,1.126,-0.854,-2.380,1.465
0.069,0.279,1.075,0.000,2.136,2.197
0.084,0.293,1.084,-1.282,3.052,0.427
0.080,0.269,1.109,-2.625,3.235,-2.380
0.071,0.234,1.087,-3.113,6.348,-4.333
0.056,0.191,1.034,-2.686,10.193,-5.432
0.057,0.188,0.993,-1.587,11.597,-4.517
0.053,0.199,0.976,0.305,11.658,-3.723
0.053,0.182,0.954,3.174,11.780,-4.211
0.043,0.148,0.918,6.104,11.414,-5.127
0.036,0.125,0.894,7.568,7.935,-4.761
0.035,0.124,0.926,7.263,2.441,-3.540
0.042,0.138,0.960,5.981,-0.854,-2.075
0.055,0.145,0.989,5.432,-0.854,-1.343
0.057,0.151,0.995,4.822,0.793,-1.587
0.037,0.129,0.964,3.906,3.296,-2.625
0.050,0.109,0.924,3.540,4.211,-2.930
0.052,0.108,0.906,3.357,2.441,-1.770
0.056,0.096,0.922,1.587,-0.427,-0.732
0.061,0.110,0.931,0.183,-2.197,0.610
0.065,0.123,0.960,0.610,-2.808,1.587
0.070,0.147,0.991,2.136,-2.747,1.648
0.073,0.163,0.972,3.540,-0.305,0.977
0.070,0.175,0.948,3.235,1.282,-0.244
0.071,0.156,0.973,1.892,0.488,-2.014
0.074,0.144,0.970,1.343,-0.427,-2.930
0.067,0.128,0.965,1.587,-0.610,-3.174
0.058,0.115,0.976,0.977,-0.977,-3.418
0.051,0.106,0.979,-0.122,-0.793,-3.357
0.048,0.102,0.960,-0.854,-0.061,-2.991
0.050,0.112,0.992,-0.732,-1.160,-2.258
0.044,0.104,1.001,0.610,-1.526,-1.770
0.045,0.084,0.984,2.686,-0.183,-1.648
0.051,0.089,0.969,4.395,0.793,-0.488
0.059,0.092,0.976,3.418,1.404,0.488
0.060,0.101,0.981,1.648,2.563,1.587
0.057,0.107,0.965,0.732,3.296,2.136
0.054,0.118,0.948,-0.244,2.747,2.625
0.062,0.134,0.951,-0.366,0.916,3.296
0.060,0.133,0.971,0.122,-0.732,3.662
0.067,0.141,0.981,1.343,-1.648,3.906
0.072,0.160,0.997,3.052,-1.831,4.211
0.082,0.184,0.993,3.601,-1.404,4.211
0.088,0.185,0.990,4.272,-0.671,3.235
0.092,0.172,0.982,5.188,0.122,1.587
0.083,0.161,0.962,4.456,1.282,0.488
0.072,0.135,0.955,3.174,1.465,-0.549
0.067,0.117,0.972,2.197,0.061,-0.610
0.064,0.122,0.977,2.136,-0.549,0.610
0.065,0.140,0.980,2.258,-0.305,1.343
0.067,0.158,0.986,2.563,0.244,1.160
0.060,0.158,0.970,2.991,1.343,0.427
0.058,0.146,0.980,2.808,1.343,-0.549
0.058,0.135,0.990,2.869,1.282,-1.038
0.057,0.118,0.972,3.052,2.502,-1.343
0.051,0.106,0.948,2.502,2.930,-1.282
0.057,0.114,0.950,1.465,1.587,-0.610
0.057,0.115,0.936,1.404,0.488,-0.183
0.052,0.129,0.952,0.916,-1.160,0.305
0.056,0.123,1.002,0.366,-2.441,0.000
0.061,0.117,1.000,-0.061,-0.366,-0.427
0.057,0.122,0.956,-0.305,2.136,0.061
0.055,0.125,0.958,-0.549,1.526,0.305
0.058,0.112,0.958,-0.488,0.916,0.305
0.058,0.107,0.957,-1.160,0.854,0.549
0.064,0.128,0.969,-1.709,-0.122,1.709
0.063,0.132,0.979,-1.709,-0.671,2.075
0.067,0.130,0.994,-1.526,-1.160,1.465
0.065,0.134,0.995,-0.610,-0.122,1.465
0.062,0.119,0.994,0.427,0.671,1.221
0.065,0.138,0.989,1.709,0.916,2.014
0.071,0.148,0.982,2.563,1.282,2.319
0.077,0.151,0.982,2.014,1.526,1.892
0.081,0.165,0.974,0.854,1.709,1.526
0.080,0.159,0.977,0.732,1.404,0.305
0.075,0.134,0.985,0.427,1.343,-1.404
0.067,0.117,0.960,0.244,2.502,-1.709
0.069,0.107,0.965,0.000,1.892,-1.099
0.068,0.116,0.977,-0.671,0.793,0.061
0.063,0.122,0.969,-1.160,1.038,0.793
0.061,0.122,0.970,-1.160,1.038,1.038
0.062,0.133,0.971,-1.526,0.671,1.160
0.059,0.127,0.991,-1.526,0.305,1.038
0.063,0.121,0.986,-0.793,0.427,0.916
0.060,0.135,0.978,0.122,0.793,1.160
0.059,0.117,0.975,1.648,0.854,0.183
0.060,0.114,0.972,2.014,1.038,0.061
0.063,0.120,0.989,2.075,0.916,0.549
0.067,0.123,1.002,1.587,1.221,0.793
0.066,0.126,0.999,1.160,2.747,0.916
0.063,0.129,0.974,0.244,4.028,0.977
-1.668,-0.659,1.688,165.527,-661.194,75.439
-1.738,-0.475,2.080,175.537,-651.123,91.919
-1.691,-0.169,2.474,158.752,-625.549,101.807
-1.445,0.139,3.263,102.966,-604.431,100.769
-1.067,0.430,4.000,10.559,-546.875,93.933
-0.684,0.598,4.000,-99.976,-416.870,77.393
-0.493,0.605,3.912,-192.200,-266.296,50.964
-0.547,0.322,3.310,-236.572,-157.104,27.954
-0.511,0.518,2.498,-231.812,-89.172,23.682
-0.491,0.501,1.978,-192.139,-67.017,16.541
-0.422,0.203,1.797,-130.676,-78.003,-1.465
-0.362,0.021,1.801,-74.463,-88.013,-5.371
-0.298,-0.077,1.765,-41.992,-86.426,1.709
-0.204,-0.033,1.885,-33.325,-81.543,15.381
-0.188,0.016,1.960,-28.381,-67.078,24.719
-0.193,0.004,1.786,-25.696,-43.091,27.893
-0.187,0.057,1.627,-21.729,-30.273,33.875
-0.123,0.240,1.654,-18.616,-30.396,41.870
-0.070,0.432,1.614,-14.038,-23.499,44.678
-0.037,0.564,1.497,-10.864,-10.071,38.452
-0.004,0.590,1.451,-10.010,-0.305,25.818
-0.007,0.470,1.401,-9.155,8.179,10.193
-0.016,0.330,1.302,-7.324,18.066,-0.610
-0.011,0.237,1.252,-5.554,23.682,-4.700
-0.009,0.174,1.140,-3.113,27.588,-5.005
0.004,0.128,1.035,-0.549,25.940,-3.723
0.047,0.148,1.009,2.747,19.226,-0.061
0.081,0.178,0.996,5.371,15.991,3.662
0.103,0.210,0.935,7.019,16.418,5.066
0.118,0.209,0.887,7.690,16.785,4.517
0.126,0.205,0.902,4.883,16.235,3.235
0.121,0.191,0.893,0.122,16.052,2.258
0.122,0.183,0.888,-3.845,14.771,1.099
0.121,0.186,0.890,-4.517,13.184,1.465
0.126,0.188,0.876,-3.418,12.451,1.831
0.141,0.184,0.863,-2.197,11.780,2.075
0.125,0.200,0.836,-0.549,10.071,2.563
0.118,0.189,0.842,1.099,7.019,2.136
0.114,0.180,0.861,2.991,3.967,1.526
0.099,0.169,0.853,4.639,3.540,1.038
0.103,0.146,0.863,4.822,1.831,0.793
0.114,0.175,0.880,4.395,0.305,2.502
0.120,0.208,0.918,4.456,-1.038,2.991
0.114,0.185,0.927,5.371,-0.427,1.038
0.098,0.170,0.922,6.104,0.793,-0.366
0.101,0.164,0.930,6.470,1.343,-0.793
0.094,0.151,0.925,6.958,1.587,-1.099
0.086,0.110,0.904,4.944,1.038,-1.587
0.088,0.122,0.907,1.465,-1.404,-0.122
0.081,0.132,0.948,-0.366,-4.639,1.160
0.071,0.127,0.948,0.427,-5.554,1.160
0.072,0.155,0.928,1.892,-5.737,1.892
0.068,0.150,0.955,2.380,-8.362,1.526
0.076,0.143,1.002,1.953,-10.315,1.038
0.078,0.146,1.023,2.197,-9.399,1.160
0.076,0.160,1.025,1.343,-6.958,0.977
0.070,0.152,1.031,0.183,-5.066,0.000
0.061,0.131,1.040,-1.282,-3.296,-0.916
0.058,0.120,1.036,-1.404,-1.343,-1.099
0.057,0.119,1.031,0.061,-0.244,-0.488
0.056,0.115,1.016,1.221,0.671,0.183
0.053,0.112,1.018,1.648,1.343,0.977
0.060,0.117,1.018,0.977,2.075,2.075
0.064,0.132,1.004,-0.244,3.052,3.235
0.071,0.155,0.977,-0.305,2.747,3.906
0.079,0.160,0.982,-1.404,1.587,3.784
0.086,0.161,1.008,-2.441,-0.244,3.418
0.092,0.175,1.009,-1.343,0.732,3.418
0.101,0.179,1.008,0.427,2.502,2.441
0.098,0.168,0.961,2.014,4.761,1.221
0.102,0.162,0.964,1.404,4.028,1.038
0.101,0.181,0.973,0.671,2.991,1.892
0.097,0.181,0.946,-0.061,3.784,1.526
0.100,0.164,0.946,-0.427,3.235,0.366
0.099,0.164,0.957,-0.977,2.563,0.427
0.095,0.164,0.969,-0.977,2.625,0.671
0.097,0.165,0.968,1.404,3.235,0.305
0.098,0.181,0.949,5.371,4.578,0.000
0.091,0.171,0.936,7.812,5.310,-1.038
0.090,0.152,0.935,7.507,5.005,-1.953
0.096,0.162,0.922,6.042,4.333,-1.221
0.091,0.161,0.953,3.601,2.319,-0.732
0.090,0.157,0.961,0.854,1.892,-0.793
0.085,0.163,0.951,-0.610,2.808,-1.221
0.076,0.151,0.949,-0.916,2.563,-1.892
0.072,0.130,0.963,-0.854,1.587,-2.625
0.072,0.117,0.965,0.244,1.770,-2.136
0.069,0.105,0.966,1.526,1.587,-1.221
0.076,0.138,0.965,2.075,1.465,0.549
0.082,0.157,0.964,2.319,1.099,1.587
0.086,0.172,0.977,2.319,0.183,1.099
0.089,0.171,0.986,2.258,0.122,-0.061
0.090,0.160,0.991,1.831,0.732,-1.099
0.092,0.152,0.982,2.014,1.770,-1.709
0.088,0.143,0.974,2.197,2.625,-1.770
0.095,0.144,0.974,1.221,2.747,-1.465
0.093,0.152,0.987,0.244,2.625,-1.099
0.089,0.149,0.984,0.244,3.296,-1.099
0.092,0.159,0.989,1.282,3.296,-1.099
0.092,0.160,0.997,2.686,2.747,-1.160
0.090,0.151,0.990,4.089,2.197,-1.953
0.095,0.149,0.980,4.578,2.014,-2.136
0.101,0.158,0.990,3.662,2.014,-1.892
0.105,0.158,0.992,4.395,2.808,-2.258
0.107,0.139,0.984,5.188,4.272,-2.991
0.104,0.133,0.967,4.211,5.737,-3.113
0.103,0.124,0.971,3.967,5.920,-3.113
0.100,0.104,0.980,4.517,6.165,-3.174
0.100,0.114,0.957,4.517,7.141,-2.441
0.104,0.125,0.962,3.906,7.202,-1.465
0.099,0.130,0.976,4.150,6.775,-1.282
0.099,0.139,0.979,3.967,6.958,-1.221
0.092,0.135,0.964,3.967,7.141,-1.465
0.089,0.103,0.965,3.967,5.554,-2.197
0.100,0.113,0.992,3.235,3.845,-1.221
0.103,0.124,0.994,4.395,4.578,-0.366
0.104,0.121,0.983,5.737,6.287,-0.916
0.104,0.142,0.963,5.127,7.019,-0.793
0.103,0.140,0.978,4.150,6.531,-1.221
-2.173,-0.592,1.050,158.203,-706.238,86.914
-2.201,-0.547,2.197,176.758,-754.333,104.675
-2.002,-0.279,3.323,196.594,-759.338,122.009
-1.697,0.305,3.744,212.036,-694.031,130.005
-1.341,0.565,3.966,189.941,-589.233,105.530
-0.975,0.547,4.000,94.910,-475.647,59.814
-0.664,0.715,4.000,-46.631,-343.140,29.724
-0.516,0.757,3.900,-172.913,-202.148,-0.061
-0.538,0.373,3.339,-236.755,-94.971,-39.124
-0.617,-0.089,2.708,-240.967,-32.776,-62.012
-0.578,-0.441,2.158,-204.956,-11.719,-58.167
-0.561,-0.415,1.752,-147.827,-20.508,-32.654
-0.470,-0.415,1.649,-91.003,-46.753,-9.094
-0.387,-0.448,1.889,-45.227,-79.224,7.751
-0.334,-0.436,2.085,-20.020,-89.355,25.635
-0.249,-0.327,2.209,-11.108,-80.872,42.358
-0.179,-0.057,2.172,-15.930,-59.631,56.030
-0.047,0.269,1.950,-30.334,-30.029,63.354
0.026,0.583,1.701,-35.339,-5.127,61.157
0.055,0.698,1.483,-34.119,10.620,45.593
0.056,0.552,1.357,-29.785,15.442,22.095
0.047,0.352,1.301,-21.240,14.832,3.052
0.041,0.195,1.193,-11.108,17.456,-5.188
0.028,0.087,1.022,-2.747,20.691,-7.141
0.026,0.038,0.878,-0.427,20.752,-5.188
0.052,0.054,0.856,-0.549,15.442,-1.282
0.074,0.084,0.910,-0.427,10.437,1.648
0.085,0.092,0.921,0.916,10.437,2.502
0.093,0.114,0.888,2.380,11.963,3.174
0.091,0.112,0.892,1.953,11.719,3.052
0.090,0.099,0.891,-0.244,11.780,1.831
0.087,0.086,0.880,-3.296,13.489,1.160
0.087,0.079,0.855,-6.226,14.771,1.404
0.090,0.102,0.874,-9.277,14.038,2.380
0.089,0.117,0.925,-8.789,11.780,2.258
0.074,0.112,0.930,-5.066,11.292,1.160
0.069,0.110,0.863,-1.587,11.536,0.732
0.082,0.143,0.881,-0.610,8.179,1.343
0.092,0.155,0.920,0.732,5.493,1.099
0.089,0.145,0.892,1.404,6.836,-0.122
0.089,0.132,0.884,2.869,6.226,-1.038
0.097,0.141,0.889,4.089,4.456,-0.854
0.096,0.124,0.894,5.493,3.540,-1.709
0.086,0.096,0.883,6.592,3.540,-2.808
0.071,0.078,0.874,5.493,2.686,-3.052
0.072,0.070,0.905,2.808,0.183,-2.808
0.066,0.067,0.934,1.282,-1.038,-2.197
0.054,0.063,0.916,1.038,-0.854,-1.099
0.053,0.063,0.908,2.991,-2.563,0.366
0.067,0.078,0.942,3.723,-5.798,2.319
0.068,0.127,0.982,3.113,-7.324,4.272
0.073,0.140,1.000,1.892,-6.714,3.845
0.075,0.141,0.999,0.427,-4.822,1.953
0.058,0.109,1.005,-0.610,-3.845,-0.122
0.038,0.084,0.984,-2.014,-2.869,-1.160
0.042,0.069,1.003,-3.601,-3.601,-0.488
0.055,0.092,1.024,-4.700,-4.333,1.099
0.055,0.101,1.045,-6.348,-3.479,1.831
0.046,0.110,1.066,-5.859,-2.808,2.258
0.046,0.125,1.042,-4.028,-0.732,2.441
0.044,0.109,1.044,-2.991,-0.122,1.709
0.039,0.089,1.045,-1.221,-0.366,1.343
0.040,0.090,1.032,0.244,0.000,1.892
0.051,0.096,1.018,-0.122,0.610,2.869
0.055,0.108,1.023,-0.916,0.671,3.479
0.070,0.124,1.004,-1.465,1.404,3.540
0.072,0.130,0.989,-1.343,1.953,3.296
0.076,0.113,0.991,-1.587,1.282,2.136
0.078,0.107,0.992,-0.610,1.099,1.953
0.079,0.117,0.974,-0.488,2.014,2.380
0.091,0.144,0.971,-0.916,2.563,2.686
0.094,0.140,0.979,-1.770,2.869,1.831
0.086,0.119,0.964,-1.648,4.028,0.305
0.082,0.089,0.942,-0.671,4.211,-0.122
0.089,0.104,0.928,-0.366,3.723,1.160
0.094,0.133,0.934,0.000,2.563,2.380
0.087,0.107,0.966,0.427,1.038,0.916
0.081,0.107,0.943,2.197,1.221,0.854
0.073,0.110,0.903,3.967,1.099,0.977
0.064,0.100,0.917,2.319,-1.404,0.854
0.067,0.099,0.977,-0.244,-4.089,1.038
0.072,0.113,1.000,-0.977,-3.662,1.526
0.072,0.120,0.977,-0.427,-1.770,0.977
0.059,0.086,0.976,0.122,-1.343,-0.427
0.054,0.071,0.997,0.732,-1.770,-0.366
0.056,0.073,1.000,1.282,-0.854,0.916
0.054,0.080,0.992,1.099,0.488,1.770
0.057,0.085,0.979,0.244,1.160,2.380
0.060,0.107,0.968,0.061,1.099,3.174
0.064,0.104,0.984,0.671,0.122,2.808
0.068,0.102,1.010,0.732,-0.305,2.441
0.063,0.127,1.005,-0.305,0.427,2.625
0.068,0.124,1.008,-0.305,0.916,2.075
0.064,0.110,1.020,0.366,0.671,1.099
0.061,0.104,1.004,0.122,1.526,1.221
0.061,0.105,0.994,0.916,1.526,1.953
0.072,0.103,0.995,1.587,1.160,2.197
0.068,0.111,0.983,2.014,1.160,2.686
0.074,0.114,0.983,1.892,1.343,2.441
0.080,0.138,0.987,1.892,1.099,2.014
0.083,0.140,0.998,1.465,1.831,0.977
0.083,0.140,0.990,2.319,2.625,-0.427
0.081,0.135,0.994,1.892,3.296,-1.648
0.069,0.096,0.972,2.686,3.967,-3.235
0.067,0.076,0.956,3.052,3.662,-3.174
0.072,0.076,0.970,2.380,2.441,-2.380
0.079,0.083,0.982,2.258,1.831,-1.221
0.079,0.089,0.977,2.380,2.869,-0.732
0.078,0.077,0.962,1.892,3.479,-0.610
0.078,0.089,0.960,1.038,3.052,0.244
0.081,0.100,0.970,0.854,2.258,0.671
0.084,0.105,0.976,0.549,2.380,0.549
0.080,0.112,0.955,-0.122,3.479,0.366
0.074,0.099,0.957,-1.038,2.991,-0.122
0.082,0.104,0.971,-1.526,2.014,-0.305
0.083,0.114,0.976,-2.014,2.319,-0.122
0.078,0.098,0.970,-2.930,2.808,-0.916
0.072,0.085,0.970,-3.540,2.747,-1.404
0.073,0.082,0.982,-3.601,2.319,-0.793
-1.872,0.000,1.959,171.692,-659.119,214.966
-1.865,0.323,2.806,198.975,-668.945,219.543
-1.498,0.719,3.925,181.213,-651.917,211.609
-0.918,1.271,4.000,106.445,-567.322,193.604
-0.442,1.612,4.000,5.005,-404.175,147.278
-0.273,1.557,3.938,-94.727,-227.173,78.186
-0.390,1.187,3.008,-166.626,-104.614,13.916
-0.446,0.685,2.226,-188.293,-49.133,-26.672
-0.436,0.331,1.917,-165.466,-51.086,-38.818
-0.326,-0.009,1.882,-120.361,-68.420,-36.255
-0.292,-0.119,1.859,-74.158,-77.881,-22.278
-0.241,-0.072,1.727,-42.053,-75.012,-2.014
-0.177,0.007,1.727,-27.649,-71.777,14.099
-0.154,0.108,1.857,-21.973,-70.068,26.123
-0.123,0.148,1.916,-15.259,-60.730,32.837
-0.082,0.249,1.833,-6.409,-45.105,38.086
-0.031,0.414,1.689,1.343,-28.381,41.687
0.004,0.528,1.574,7.996,-16.296,38.879
0.017,0.540,1.463,13.306,-7.202,29.541
0.059,0.500,1.345,15.015,1.038,18.799
0.079,0.439,1.259,11.719,7.263,9.277
0.081,0.341,1.199,6.104,12.207,1.404
0.090,0.262,1.077,0.854,20.203,-2.563
0.090,0.241,0.940,-1.221,25.330,-2.747
0.090,0.206,0.820,0.305,24.231,-2.441
0.101,0.148,0.830,3.174,16.113,-0.854
0.113,0.158,0.885,6.287,7.080,3.418
0.130,0.192,0.899,9.888,3.845,7.080
0.139,0.231,0.848,11.963,3.967,8.301
0.153,0.277,0.825,10.498,3.174,8.240
0.161,0.312,0.885,6.897,0.244,6.531
0.150,0.284,0.930,4.822,0.427,2.563
0.142,0.252,0.905,3.174,4.883,0.305
0.120,0.264,0.856,1.465,7.935,0.244
0.121,0.247,0.872,-0.916,6.409,-0.977
0.109,0.236,0.883,-0.488,4.944,-1.099
0.100,0.221,0.852,2.380,4.395,-0.977
0.109,0.214,0.854,6.409,1.221,-0.122
0.116,0.203,0.912,10.376,-2.136,1.038
0.115,0.202,0.930,13.672,-2.258,2.319
0.115,0.208,0.942,13.184,-0.793,2.808
0.109,0.217,0.926,10.742,1.099,3.357
0.102,0.225,0.923,8.179,2.563,3.784
0.098,0.231,0.892,6.042,3.784,3.479
0.090,0.222,0.876,3.784,3.479,2.930
0.082,0.220,0.867,3.784,0.793,2.747
0.081,0.215,0.901,5.066,-3.113,3.174
0.086,0.218,0.970,5.371,-7.202,3.540
0.092,0.229,0.998,5.493,-8.057,3.967
0.100,0.254,0.996,4.333,-6.531,3.784
0.090,0.251,1.003,1.282,-5.676,2.808
0.086,0.231,1.002,-0.549,-4.883,1.465
0.095,0.255,0.997,-0.977,-3.174,1.526
0.093,0.254,1.004,-2.136,-2.502,0.732
0.089,0.253,1.010,-3.113,-1.953,-0.427
0.088,0.243,1.024,-2.930,-0.671,-1.160
0.078,0.229,1.006,-2.014,1.404,-1.892
0.065,0.208,0.960,0.793,2.441,-2.319
0.065,0.172,0.947,3.174,0.610,-2.075
0.073,0.177,0.965,3.845,-2.136,-0.122
0.085,0.203,0.974,3.479,-2.502,1.831
0.094,0.219,0.976,1.526,-1.526,2.441
0.091,0.217,0.956,-0.549,0.183,1.648
0.089,0.205,0.936,-1.892,1.221,0.916
0.098,0.224,0.911,-1.770,1.587,1.526
0.108,0.224,0.934,-1.160,0.610,1.465
0.117,0.233,0.949,-0.732,-0.122,1.465
0.118,0.242,0.944,0.305,0.916,1.343
0.114,0.222,0.929,0.427,1.465,0.854
0.113,0.219,0.937,0.671,0.916,1.038
0.115,0.230,0.944,1.404,0.427,2.136
0.109,0.223,0.932,2.502,0.061,2.075
0.103,0.219,0.934,4.150,-0.854,1.953
0.107,0.228,0.957,4.211,-2.258,2.197
0.105,0.221,0.970,2.991,-2.014,2.319
0.104,0.218,0.956,1.953,-0.854,1.831
0.101,0.230,0.944,1.038,-0.427,1.770
0.101,0.212,0.961,-0.122,-0.854,1.099
0.098,0.204,0.960,-0.549,-0.671,0.916
0.095,0.208,0.952,-0.061,0.183,1.282
0.092,0.208,0.959,0.122,0.122,1.282
0.088,0.199,0.971,0.610,0.061,1.282
0.091,0.213,0.969,0.916,0.549,1.953
0.092,0.229,0.960,1.465,0.977,2.502
0.094,0.237,0.943,0.793,0.977,2.258
0.096,0.230,0.977,0.000,-0.366,1.587
0.097,0.226,0.974,0.854,0.183,0.854
0.095,0.216,0.963,0.916,1.587,0.122
0.092,0.219,0.948,0.000,1.953,-0.122
0.088,0.194,0.969,-0.488,1.465,-0.854
0.090,0.195,0.963,0.000,1.465,-0.488
0.084,0.194,0.949,-0.122,1.648,0.061
0.080,0.187,0.952,-0.793,0.427,0.305
0.084,0.196,0.973,-1.221,-0.977,1.282
0.094,0.212,0.981,-0.488,-0.671,1.892
0.096,0.222,0.958,0.305,0.427,1.648
0.103,0.240,0.952,0.916,0.732,1.465
0.109,0.231,0.958,1.343,0.732,0.427
0.108,0.220,0.947,1.648,1.465,-0.427
0.113,0.215,0.941,1.587,1.587,-0.854
0.109,0.219,0.932,0.977,1.892,-0.671
0.107,0.211,0.950,-0.305,1.221,-1.099
0.103,0.209,0.953,-1.099,1.282,-0.916
0.102,0.193,0.956,-1.038,1.831,-0.671
0.096,0.189,0.946,0.671,1.953,-0.061
0.091,0.186,0.925,3.052,2.258,0.732
0.098,0.186,0.928,4.028,1.343,1.831
0.105,0.212,0.950,3.296,0.488,3.235
0.109,0.229,0.966,2.930,0.793,3.479
0.100,0.229,0.946,2.258,2.136,2.625
0.099,0.219,0.931,0.916,2.319,1.465
0.095,0.219,0.929,-0.427,1.221,1.221
0.103,0.220,0.956,-0.916,-0.183,1.160
0.102,0.224,0.960,-0.977,0.000,1.038
0.094,0.209,0.946,-1.221,0.488,0.488
0.095,0.212,0.954,-1.221,-0.122,0.916
0.099,0.219,0.960,-0.732,-0.366,1.160
0.093,0.211,0.963,0.061,0.427,0.977
0.090,0.196,0.963,1.038,0.732,0.793
-1.561,-0.377,1.587,155.823,-620.850,129.578
-1.512,-0.164,2.023,170.654,-623.047,138.611
-1.424,0.232,2.554,160.217,-607.727,144.836
-1.134,0.316,3.348,102.234,-575.867,131.165
-0.821,0.559,3.766,18.066,-492.920,122.314
-0.567,0.677,3.703,-71.777,-373.962,106.567
-0.475,0.693,3.270,-140.991,-258.362,82.214
-0.456,0.694,2.807,-175.049,-176.758,60.547
-0.577,0.605,2.327,-162.964,-130.310,40.955
-0.513,0.401,2.006,-128.723,-114.563,26.367
-0.457,0.240,2.108,-91.736,-124.451,25.696
-0.338,0.163,2.112,-50.720,-121.765,26.733
-0.303,0.185,1.946,-23.865,-103.638,30.640
-0.248,0.253,1.746,-19.104,-84.961,36.133
-0.160,0.382,1.763,-21.240,-78.064,40.039
-0.115,0.455,1.746,-16.663,-69.824,37.842
-0.097,0.427,1.710,-6.836,-59.326,31.128
-0.043,0.403,1.710,4.272,-51.636,25.452
-0.126,0.417,1.669,14.160,-39.368,21.729
-0.064,0.364,1.584,16.418,-24.414,18.005
-0.028,0.452,1.572,17.517,-13.428,18.494
-0.009,0.469,1.443,16.663,1.343,14.282
-0.006,0.445,1.300,13.428,12.756,7.385
0.001,0.417,1.192,8.423,16.418,1.709
0.018,0.381,1.146,5.432,15.259,-2.991
0.013,0.297,1.092,2.075,14.099,-7.019
0.007,0.199,1.052,1.343,11.719,-10.010
0.013,0.167,1.049,0.305,8.972,-8.301
0.022,0.162,1.037,-2.136,8.667,-4.944
0.031,0.194,1.005,-4.333,9.705,-2.136
0.047,0.253,0.975,-5.127,10.498,0.122
0.060,0.270,1.003,-3.906,9.583,0.000
0.062,0.260,1.023,-2.625,10.132,-1.404
0.066,0.259,0.993,-1.221,13.062,-1.770
0.048,0.228,0.952,-0.305,14.160,-3.174
0.056,0.209,0.974,-0.793,12.329,-4.211
0.054,0.235,0.949,-1.099,13.672,-4.089
0.049,0.216,0.937,-1.587,15.198,-5.127
0.037,0.193,0.913,-2.686,16.052,-5.859
0.037,0.172,0.889,-4.028,16.418,-5.249
0.034,0.158,0.870,-3.479,14.893,-3.784
0.040,0.161,0.852,-1.465,12.390,-2.686
0.049,0.174,0.852,0.122,10.071,-0.793
0.056,0.183,0.859,1.892,7.385,0.122
0.068,0.207,0.880,2.869,5.188,0.793
0.065,0.225,0.905,3.174,4.272,0.977
0.061,0.213,0.914,2.136,4.944,0.000
0.066,0.196,0.916,2.258,5.859,-1.343
0.066,0.204,0.929,2.319,6.165,-1.282
0.061,0.215,0.892,3.296,7.935,-1.343
0.045,0.181,0.847,3.845,7.202,-2.258
0.051,0.188,0.894,2.563,1.282,-1.831
0.055,0.236,0.890,4.089,-0.916,-0.122
0.064,0.228,0.893,5.493,-2.258,-1.282
0.064,0.215,0.929,5.493,-4.211,-2.563
0.060,0.195,0.937,5.920,-3.662,-2.930
0.063,0.177,0.968,5.493,-3.113,-2.991
0.062,0.183,0.986,5.493,-1.221,-2.808
0.048,0.165,0.980,5.249,2.380,-3.052
0.032,0.153,0.941,4.333,4.395,-3.052
0.026,0.149,0.948,3.357,1.892,-2.563
0.031,0.158,0.996,1.587,-1.587,-1.038
0.031,0.167,1.004,1.221,-1.953,0.427
0.031,0.155,0.986,1.404,-0.610,0.854
0.040,0.151,0.995,0.671,-1.099,1.831
0.038,0.164,1.000,0.061,-1.343,3.906
0.049,0.180,1.007,-0.366,-1.038,4.883
0.062,0.200,1.017,0.854,-0.183,5.127
0.073,0.212,0.992,1.770,1.343,4.517
0.074,0.208,0.989,1.343,1.160,4.211
0.075,0.239,1.006,0.732,-0.183,4.395
0.072,0.230,1.011,0.610,0.793,3.174
0.072,0.206,1.000,1.831,2.625,1.465
0.069,0.192,0.982,2.502,4.028,1.343
0.072,0.186,1.001,2.258,3.845,2.136
0.077,0.201,1.000,2.258,4.333,3.235
0.077,0.206,0.978,4.028,5.859,3.052
0.068,0.210,0.950,5.493,6.165,2.625
0.076,0.219,0.934,4.578,4.700,2.380
0.075,0.223,0.972,3.845,2.441,1.892
0.072,0.210,0.978,3.540,2.319,0.549
0.072,0.219,0.963,3.418,3.479,0.000
0.069,0.218,0.951,2.563,4.028,-0.732
0.066,0.190,0.960,1.831,3.601,-2.136
0.065,0.166,0.983,1.526,2.991,-2.686
0.064,0.173,0.978,3.113,3.540,-2.319
0.059,0.151,0.964,4.028,4.761,-2.258
0.054,0.147,0.958,3.967,5.188,-1.587
0.059,0.156,0.969,3.784,5.005,-0.244
0.058,0.163,0.958,2.869,5.859,0.854
0.061,0.171,0.943,1.953,6.409,1.099
0.069,0.191,0.947,2.502,5.066,1.343
0.068,0.175,0.977,2.686,2.930,0.366
0.067,0.162,0.996,2.380,2.686,0.305
0.074,0.186,1.010,2.380,3.601,0.977
0.073,0.191,1.011,2.258,5.249,0.366
0.074,0.190,1.026,2.686,6.470,-0.610
0.073,0.199,1.023,3.601,8.850,-1.282
0.067,0.191,0.989,5.615,11.719,-2.380
0.063,0.169,0.961,6.836,12.451,-3.052
0.075,0.163,0.987,6.531,10.742,-2.747
0.085,0.177,1.006,7.812,10.376,-2.075
0.095,0.173,1.020,10.071,11.902,-2.319
0.093,0.161,1.000,11.719,14.587,-3.052
0.088,0.160,0.997,10.742,15.930,-3.174
0.098,0.172,1.028,9.338,16.113,-2.991
0.102,0.184,1.058,10.071,17.822,-3.296
0.102,0.177,1.082,12.268,20.752,-4.761
0.096,0.170,1.086,14.893,24.719,-6.287
0.089,0.149,1.069,17.090,28.809,-7.446
0.092,0.199,1.048,19.409,31.433,-8.850
0.066,0.061,1.042,23.560,31.433,-15.198
0.070,0.160,1.009,22.278,31.982,-9.888
0.068,0.126,1.051,20.813,28.992,-11.047
0.021,0.090,1.064,22.583,26.550,-13.794
0.045,-0.009,1.044,22.705,24.353,-16.663
0.073,0.003,1.157,22.888,20.935,-14.465
0.108,0.051,1.146,20.752,28.442,-9.155
0.090,0.016,1.079,20.630,35.156,-8.972
-1.306,-0.455,-1.045,127.014,-519.653,87.585
-1.787,-0.391,-0.400,127.075,-610.779,102.722
-2.174,-0.452,0.617,117.188,-691.345,115.479
-2.425,-0.384,1.826,96.680,-744.080,129.517
-2.404,0.033,2.918,70.007,-747.986,148.010
-1.973,0.611,4.000,25.269,-729.126,165.649
-1.281,1.199,4.000,-22.583,-658.936,176.392
-0.737,1.425,4.000,-48.523,-508.118,148.315
-0.509,1.270,4.000,-58.777,-325.623,90.393
-0.516,0.875,3.774,-62.866,-184.509,32.349
-0.574,0.351,2.909,-53.284,-105.530,-9.155
-0.584,0.073,2.388,-38.452,-80.078,-20.264
-0.499,-0.123,2.232,-20.569,-80.505,-16.174
-0.374,-0.201,2.284,-5.066,-82.520,-7.324
-0.242,-0.180,2.240,5.798,-70.129,2.686
-0.147,-0.098,2.025,12.085,-46.448,10.437
-0.095,-0.021,1.750,10.864,-24.353,13.855
-0.051,0.050,1.542,7.446,-12.146,15.381
-0.008,0.114,1.500,4.761,-11.108,15.869
0.012,0.148,1.525,3.540,-11.597,14.099
0.036,0.146,1.512,6.165,-7.507,9.155
0.038,0.142,1.433,8.118,-0.305,4.150
0.061,0.169,1.372,8.057,4.883,0.671
0.058,0.155,1.315,5.249,9.949,-2.625
0.051,0.106,1.222,-1.160,16.357,-6.042
0.068,0.099,1.148,-8.118,20.752,-6.287
0.091,0.107,1.101,-13.062,22.400,-5.249
0.099,0.103,1.052,-17.639,24.292,-5.066
0.095,0.090,0.977,-21.545,26.428,-5.188
0.087,0.077,0.907,-22.095,26.001,-4.761
0.080,0.065,0.888,-18.555,20.447,-4.150
0.079,0.054,0.889,-11.963,13.672,-3.174
0.083,0.049,0.925,-4.822,6.592,-2.075
0.083,0.047,0.956,1.953,2.075,-0.671
0.090,0.044,0.978,4.211,0.427,0.549
0.102,0.072,1.000,2.502,0.244,2.014
0.074,0.102,0.981,-0.549,2.136,1.892
0.070,0.099,0.985,-4.456,3.052,0.061
0.062,0.099,0.997,-6.775,3.418,-1.587
0.064,0.098,1.001,-5.615,5.005,-3.113
0.056,0.072,0.995,-5.493,7.141,-5.005
0.052,0.055,0.951,-4.517,9.949,-6.165
0.049,0.025,0.917,-3.418,10.437,-6.836
0.069,-0.011,0.911,-3.784,8.728,-6.592
0.068,-0.009,0.911,-3.845,6.531,-4.883
0.074,-0.019,0.925,-5.981,5.127,-3.296
0.070,-0.001,0.915,-6.592,4.883,-1.709
0.064,0.002,0.896,-6.531,3.723,-0.549
0.074,-0.003,0.916,-5.859,0.793,0.549
0.083,0.028,0.927,-6.042,-0.916,2.747
0.090,0.050,0.934,-4.822,-1.648,3.906
0.095,0.065,0.948,-3.540,-2.686,3.357
0.089,0.062,0.964,-1.526,-3.723,2.319
0.087,0.060,0.968,-0.732,-4.150,1.343
0.104,0.069,0.993,-0.977,-3.967,1.404
0.104,0.073,1.001,-0.977,-2.991,1.465
0.109,0.074,0.982,-1.892,-1.282,1.404
0.098,0.070,0.982,-2.625,-1.221,1.282
0.091,0.062,0.974,-3.540,-1.343,1.404
0.093,0.073,0.962,-4.578,-1.587,2.075
0.101,0.080,0.999,-5.127,-3.296,2.625
0.098,0.079,1.012,-4.700,-3.235,2.747
0.092,0.080,0.999,-3.052,-2.136,2.563
0.094,0.073,1.007,-1.099,-2.197,2.258
0.088,0.094,0.990,-0.916,-1.648,2.991
0.092,0.107,0.993,-1.404,-2.075,2.869
0.089,0.100,1.016,-0.305,-3.113,1.587
0.088,0.099,1.009,0.427,-1.770,0.977
0.081,0.099,0.995,0.427,-0.916,0.549
0.082,0.104,1.005,0.061,-1.282,-0.183
0.079,0.096,1.005,-0.488,-0.732,-0.732
0.074,0.079,1.004,-1.038,-0.122,-1.465
0.074,0.074,0.995,-0.427,0.244,-1.465
0.064,0.054,0.995,0.732,0.183,-1.465
0.058,0.038,0.996,0.549,0.061,-1.221
0.072,0.051,0.984,0.488,0.610,0.183
0.072,0.069,1.002,0.427,0.549,1.404
0.068,0.089,0.991,-0.061,0.916,1.648
0.064,0.072,0.973,0.977,1.282,0.549
0.066,0.047,0.970,1.282,0.366,0.061
0.074,0.060,0.995,-0.061,-0.671,1.221
0.073,0.077,1.005,-1.465,0.000,2.380
0.075,0.075,0.995,-1.831,1.282,2.258
0.076,0.076,0.977,-1.282,2.014,2.563
0.077,0.077,0.985,-1.221,1.343,2.747
0.082,0.088,0.992,-0.244,0.977,2.869
0.082,0.075,0.983,2.075,1.526,2.319
0.083,0.058,0.975,1.831,1.709,1.953
0.086,0.064,0.976,0.366,1.343,3.235
0.087,0.089,0.974,-0.671,1.526,4.456
0.085,0.086,0.976,-1.587,1.770,4.333
0.085,0.086,0.979,-1.465,1.892,4.028
0.083,0.094,0.979,-1.404,2.136,4.395
0.082,0.100,0.957,-1.648,2.625,4.150
0.089,0.106,0.956,-2.197,1.892,3.479
0.092,0.108,0.982,-2.808,1.099,2.930
0.076,0.113,0.987,-2.991,0.916,2.197
0.074,0.093,0.990,-2.747,1.648,0.854
0.077,0.085,0.975,-0.854,1.770,0.366
0.075,0.077,0.966,0.916,1.587,0.549
0.074,0.074,0.966,1.770,0.732,0.977
0.079,0.066,0.973,2.441,0.366,1.099
0.082,0.070,0.979,1.953,0.366,1.770
0.080,0.081,0.984,0.305,0.916,2.258
0.076,0.081,0.985,-0.732,1.465,1.953
0.074,0.069,0.979,-0.854,2.014,1.526
0.075,0.077,0.984,-2.136,1.892,2.197
0.080,0.105,0.977,-2.930,2.075,2.930
0.073,0.095,0.968,-2.136,1.770,1.831
0.075,0.071,0.972,-0.610,0.549,0.793
0.076,0.071,0.999,0.366,-0.977,1.343
0.082,0.072,1.009,0.366,-0.793,1.892
0.081,0.081,0.996,-0.366,0.916,2.136
0.080,0.092,0.978,-1.038,2.075,2.441
0.080,0.087,0.981,-1.709,2.197,1.770
0.076,0.083,0.978,-1.953,2.380,1.282
0.075,0.083,0.981,-1.526,2.014,0.793
0.080,0.081,0.996,-1.160,1.526,0.854
0.085,0.087,0.989,-0.610,2.014,0.732
-1.754,0.586,2.088,-31.250,-582.886,125.427
-1.751,0.585,2.494,-99.304,-533.569,117.004
-1.709,0.645,2.876,-140.442,-492.249,114.380
-1.666,0.885,3.297,-142.395,-464.417,118.347
-1.496,1.020,3.966,-110.718,-448.242,110.229
-1.235,1.040,4.000,-63.843,-404.175,90.576
-0.949,0.939,4.000,-16.968,-313.293,64.697
-0.725,0.800,3.982,16.846,-209.045,42.114
-0.567,0.710,3.309,26.855,-124.939,28.076
-0.461,0.707,2.739,21.790,-72.388,19.714
-0.362,0.691,2.340,21.118,-44.128,10.071
-0.286,0.543,2.058,29.846,-28.992,-4.578
-0.241,0.318,1.840,43.640,-20.020,-20.935
-0.229,0.000,1.663,55.786,-14.343,-33.691
-0.194,-0.287,1.519,60.120,-9.033,-36.194
-0.166,-0.346,1.355,56.213,-2.319,-23.865
-0.139,-0.327,1.205,44.495,4.333,-7.874
-0.114,-0.232,1.173,28.503,6.775,7.141
-0.086,-0.057,1.163,11.353,10.498,21.240
-0.067,0.112,1.122,-2.380,17.517,29.663
-0.040,0.268,1.000,-11.475,25.818,32.288
-0.038,0.391,0.898,-16.663,28.503,30.701
-0.036,0.459,0.862,-19.470,22.888,25.024
-0.024,0.499,0.894,-17.090,14.893,17.456
-0.011,0.452,0.957,-11.597,7.324,7.812
-0.004,0.339,1.016,-3.845,2.136,-0.916
-0.009,0.241,1.024,5.554,1.282,-5.554
-0.011,0.188,1.006,11.597,2.625,-7.507
-0.016,0.141,0.999,14.526,3.967,-8.240
-0.017,0.111,0.981,14.099,4.761,-8.118
-0.021,0.075,1.003,10.376,3.418,-6.714
-0.013,0.078,1.053,5.798,2.197,-4.517
-0.024,0.103,1.053,0.183,3.967,-2.380
-0.023,0.136,1.010,-4.761,7.263,-1.160
-0.021,0.172,0.990,-7.507,7.507,-0.610
-0.008,0.182,1.009,-7.935,5.798,-1.099
-0.006,0.209,0.985,-4.395,5.127,-2.136
-0.009,0.169,0.980,1.404,3.540,-4.883
-0.006,0.098,1.012,6.287,0.549,-7.263
-0.008,0.066,1.041,8.179,0.122,-6.348
-0.015,0.055,1.017,7.812,2.258,-4.089
-0.012,0.049,0.990,6.836,4.333,-2.930
-0.009,0.057,0.971,5.554,4.944,-1.404
-0.007,0.039,0.962,4.883,5.371,0.000
-0.007,0.032,0.950,4.089,5.371,1.709
-0.003,0.050,0.957,1.648,4.578,4.456
-0.003,0.077,0.967,-0.366,4.150,6.714
0.006,0.104,0.967,-1.404,4.578,8.057
0.009,0.138,0.966,-2.930,5.249,8.728
0.006,0.129,0.953,-4.456,5.249,7.568
0.019,0.141,0.955,-4.150,4.333,7.446
0.030,0.171,0.962,-3.479,3.540,7.446
0.030,0.168,0.966,-2.563,3.357,6.165
0.034,0.182,0.926,-1.343,4.517,5.188
0.034,0.171,0.925,1.221,3.723,3.845
0.033,0.160,0.916,3.174,2.502,2.441
0.031,0.163,0.925,5.615,1.526,1.953
0.031,0.156,0.934,6.531,0.488,1.099
0.032,0.131,0.930,6.104,0.244,0.244
0.027,0.129,0.926,3.601,0.183,0.732
0.018,0.135,0.915,1.038,0.183,1.526
0.020,0.115,0.927,-1.099,-0.854,1.526
0.019,0.124,0.960,-1.770,-2.625,2.258
0.020,0.142,0.956,-1.221,-2.136,3.174
0.012,0.147,0.950,-0.732,-1.709,2.808
0.006,0.156,0.948,-0.916,-1.770,2.625
0.001,0.158,0.972,-1.038,-3.174,2.014
0.008,0.163,0.979,-0.671,-3.784,0.793
0.006,0.140,0.997,0.061,-3.662,-0.732
-0.002,0.122,0.991,-0.549,-2.930,-1.587
-0.001,0.124,0.990,-0.122,-2.441,-1.099
-0.001,0.117,1.005,-0.244,-2.380,-1.099
-0.007,0.113,1.002,-0.061,-1.160,-0.793
-0.009,0.105,0.992,-0.366,0.122,-0.366
-0.010,0.109,0.985,-0.427,0.488,0.549
-0.018,0.106,0.980,0.488,0.549,0.916
-0.014,0.092,0.960,0.671,0.793,1.160
-0.011,0.099,0.974,0.183,0.000,2.319
-0.007,0.112,0.976,-0.671,-0.549,3.479
-0.006,0.129,0.984,-1.160,-0.671,3.906
-0.000,0.136,0.987,-0.977,-0.549,3.906
0.001,0.128,0.995,-1.038,-0.671,3.540
0.000,0.124,1.004,-1.831,-0.427,3.601
0.009,0.145,0.981,-1.770,0.854,4.089
0.000,0.158,0.969,-0.671,1.221,3.235
-0.022,0.117,0.972,-0.854,0.427,1.343
-0.007,0.098,0.971,0.610,0.427,0.732
0.001,0.120,0.968,3.906,-0.183,1.770
-0.002,0.121,0.971,4.700,-1.221,2.319
-0.005,0.101,0.978,5.371,-1.892,1.404
-0.011,0.106,0.984,4.272,-1.831,1.770
-0.010,0.123,0.994,2.136,-1.831,2.930
0.001,0.151,1.009,1.282,-2.136,3.601
0.004,0.172,1.007,0.854,-1.221,3.052
0.001,0.163,0.978,1.282,0.488,1.038
-0.000,0.142,0.973,1.465,0.488,-0.244
-0.001,0.120,0.980,0.671,-0.122,-0.916
-0.010,0.127,0.993,0.549,-0.305,-0.671
-0.003,0.111,0.975,1.526,0.000,-0.793
-0.008,0.118,0.991,1.770,-0.122,-0.366
-0.009,0.113,0.984,1.648,-0.061,-0.244
-0.003,0.113,1.006,0.427,-0.488,0.122
-0.001,0.120,1.002,0.244,0.122,0.488
0.006,0.118,0.987,0.488,0.854,0.793
-0.010,0.127,0.974,0.488,0.610,0.854
-0.011,0.137,0.988,0.122,-0.061,0.854
-0.002,0.127,1.004,1.709,0.000,-0.122
-0.010,0.138,0.970,2.502,1.038,-0.122
-0.011,0.124,0.985,2.319,-0.183,-0.244
-0.006,0.116,1.018,2.258,-1.587,-0.549
-0.003,0.133,1.000,1.709,0.122,-0.305
-0.003,0.127,0.991,1.221,1.282,-0.610
-0.003,0.112,1.001,1.099,0.854,-1.099
-0.009,0.112,0.983,1.221,1.160,-0.671
-0.006,0.118,0.971,0.916,1.099,-0.061
-0.005,0.108,0.992,0.916,-0.061,0.061
-0.006,0.104,1.000,1.648,-0.305,0.183
-0.005,0.105,0.992,1.953,0.610,0.549
-0.006,0.113,0.981,0.977,0.977,0.977
-1.732,0.769,1.960,117.737,-670.715,108.032
-1.719,0.654,2.505,127.991,-661.926,77.942
-1.609,0.568,3.153,114.502,-633.667,47.852
-1.275,0.589,3.997,62.500,-595.032,32.043
-0.792,0.524,4.000,-17.883,-508.545,25.513
-0.423,0.433,4.000,-100.830,-367.859,19.958
-0.268,0.295,4.000,-155.884,-222.046,13.916
-0.247,0.145,3.981,-171.631,-108.276,8.057
-0.265,0.096,3.171,-151.550,-23.071,7.263
-0.250,0.090,2.462,-113.892,20.630,10.803
-0.199,0.206,1.980,-70.740,26.367,17.090
-0.100,0.342,1.659,-35.339,16.418,19.958
-0.036,0.261,1.583,-5.493,-3.235,11.719
0.041,0.183,1.589,13.245,-15.381,5.737
0.092,0.135,1.547,22.095,-15.137,3.967
0.131,0.130,1.443,27.100,-7.935,4.944
0.155,0.132,1.335,27.771,-0.305,5.920
0.159,0.155,1.245,23.132,5.127,7.202
0.163,0.183,1.184,16.663,9.399,9.094
0.175,0.202,1.147,11.780,12.390,10.071
0.182,0.247,1.113,9.277,15.259,11.230
0.184,0.277,1.044,8.301,18.433,11.475
0.177,0.302,0.947,6.897,21.179,11.108
0.172,0.317,0.844,4.761,20.081,10.010
0.174,0.299,0.837,2.625,13.000,7.385
0.171,0.272,0.828,2.136,6.104,5.615
0.183,0.272,0.843,2.747,0.244,4.395
0.198,0.267,0.892,4.395,-4.822,2.625
0.193,0.248,0.934,7.202,-7.874,0.122
0.191,0.240,0.961,8.545,-9.216,-1.099
0.195,0.230,0.990,8.911,-9.888,-1.831
0.186,0.237,1.006,8.301,-9.033,-2.563
0.165,0.221,1.003,7.202,-6.775,-3.601
0.155,0.183,1.016,5.066,-5.066,-5.066
0.138,0.169,1.005,2.319,-2.930,-5.066
0.111,0.144,0.980,1.343,-1.221,-5.005
0.108,0.112,0.988,0.610,-1.709,-4.395
0.104,0.111,0.984,1.709,-1.770,-2.991
0.103,0.111,0.974,4.089,-1.404,-2.197
0.108,0.112,0.958,5.981,-1.404,-1.648
0.110,0.123,0.948,6.836,-1.526,-1.221
0.113,0.124,0.939,7.751,-2.380,-1.282
0.113,0.101,0.933,8.240,-3.418,-1.648
0.122,0.114,0.941,7.507,-4.333,-0.549
0.127,0.130,0.957,6.958,-4.578,0.488
0.127,0.132,0.926,7.263,-3.174,0.061
0.123,0.118,0.929,7.019,-2.991,-0.488
0.130,0.121,0.923,6.470,-3.418,-0.549
0.126,0.115,0.926,6.165,-3.296,-0.122
0.128,0.111,0.936,5.310,-3.601,-0.122
0.130,0.101,0.957,5.615,-4.333,-0.061
0.132,0.097,0.953,5.920,-3.906,0.488
0.135,0.102,0.944,5.737,-3.418,1.160
0.136,0.100,0.945,4.700,-3.052,1.831
0.126,0.104,0.953,1.953,-3.174,2.686
0.155,0.110,0.977,-0.488,-2.930,3.296
0.166,0.130,0.986,-0.610,-1.892,3.906
0.122,0.160,0.942,0.122,-0.183,3.540
0.140,0.149,0.979,-1.160,-1.282,1.099
0.138,0.149,0.987,-0.977,-1.892,0.671
0.138,0.143,0.986,0.000,-1.160,-0.244
0.135,0.129,0.999,1.038,-0.671,-0.977
0.121,0.114,0.992,1.526,-0.183,-1.465
0.120,0.107,0.987,1.587,0.061,-1.282
0.123,0.117,0.993,1.648,0.122,-0.488
0.124,0.125,1.000,2.075,0.549,-0.244
0.117,0.109,1.000,2.563,0.854,-0.854
0.119,0.105,0.979,3.296,1.526,-1.099
0.120,0.092,0.986,3.418,1.709,-0.732
0.119,0.108,0.987,2.808,1.770,0.000
0.121,0.111,0.981,2.319,2.686,0.000
0.118,0.105,0.984,1.404,2.930,-0.183
0.121,0.112,0.990,0.671,3.235,0.671
0.120,0.131,0.980,0.732,3.784,1.160
0.121,0.124,0.976,1.709,4.028,0.488
0.123,0.108,0.973,2.075,3.845,-0.183
0.117,0.103,0.975,1.343,2.991,0.244
0.126,0.115,0.980,1.465,1.526,0.854
0.134,0.111,0.996,2.319,1.099,1.099
0.132,0.110,0.996,2.747,1.709,0.854
0.128,0.112,0.988,4.150,2.930,1.160
0.131,0.107,0.986,4.944,3.174,1.221
0.128,0.115,0.994,4.395,3.235,1.648
0.145,0.119,0.993,3.479,4.089,1.648
0.139,0.122,0.971,4.150,5.615,1.343
0.140,0.123,0.957,3.723,6.348,1.038
0.138,0.118,0.967,2.075,5.310,0.366
0.138,0.113,0.986,0.916,4.395,0.122
0.149,0.123,0.977,0.732,4.150,0.427
0.142,0.110,0.989,0.244,4.211,0.061
0.139,0.119,0.965,0.183,4.944,0.122
0.143,0.118,0.966,2.014,4.883,0.122
0.145,0.104,0.959,2.869,4.089,-0.488
0.144,0.112,0.959,2.441,4.089,0.305
0.144,0.116,0.974,1.770,3.723,0.549
0.144,0.114,0.968,1.221,4.211,0.427
0.147,0.113,0.964,1.038,4.761,0.305
0.142,0.117,0.968,1.404,4.578,0.244
0.142,0.109,0.975,1.282,4.517,0.183
0.143,0.114,0.969,1.038,5.005,0.061
0.144,0.117,0.957,0.244,5.127,0.244
0.143,0.120,0.953,-0.549,4.761,0.061
0.139,0.117,0.946,-0.305,4.456,-0.305
0.136,0.105,0.955,0.122,3.601,-0.610
0.135,0.110,0.963,1.038,2.747,-0.610
0.133,0.114,0.966,1.892,2.258,-0.610
0.134,0.114,0.967,2.075,2.014,-0.610
0.136,0.109,0.983,2.075,1.343,-0.549
0.137,0.110,0.989,1.343,1.953,-0.305
0.135,0.115,0.988,0.793,3.113,-0.061
0.128,0.113,0.987,0.916,4.150,-0.366
0.125,0.112,0.999,1.404,4.700,-0.549
0.118,0.107,1.011,1.587,5.310,-0.916
0.112,0.096,1.016,2.014,6.470,-1.526
0.116,0.091,1.014,3.235,7.751,-1.221
0.116,0.076,1.010,3.418,8.789,-0.854
0.117,0.075,1.015,3.296,9.521,-0.244
0.122,0.074,1.020,3.418,10.681,0.610
0.129,0.083,1.023,3.052,12.451,1.587
-1.153,0.405,1.873,78.247,-552.063,55.969
-1.023,0.379,2.356,20.508,-518.372,43.762
-0.940,0.314,2.806,-52.612,-462.891,33.752
-0.842,0.291,3.166,-117.676,-401.184,32.593
-0.736,0.173,3.361,-158.813,-331.970,33.203
-0.644,0.094,3.320,-170.837,-263.611,36.926
-0.568,0.058,3.122,-156.006,-206.421,44.128
-0.522,0.008,2.906,-121.948,-165.588,48.950
-0.432,0.104,2.654,-84.656,-137.024,56.702
-0.294,0.270,2.480,-55.298,-119.568,63.782
-0.208,0.343,2.263,-31.189,-104.004,62.195
-0.136,0.383,2.074,-16.235,-89.294,55.908
-0.058,0.478,2.037,-9.094,-81.360,49.866
0.009,0.538,2.026,-0.793,-71.045,40.588
0.030,0.504,1.958,6.653,-54.871,27.466
0.040,0.441,1.863,13.489,-37.842,15.625
0.060,0.394,1.725,17.395,-21.790,7.874
0.075,0.351,1.579,19.348,-7.690,2.319
0.040,0.266,1.443,17.639,1.526,-3.235
0.031,0.176,1.321,13.306,7.324,-6.897
0.023,0.118,1.235,10.315,10.376,-6.409
0.038,0.095,1.186,8.362,11.658,-4.150
0.048,0.106,1.123,5.493,15.381,-1.648
0.050,0.107,1.033,1.526,20.081,0.488
0.054,0.096,0.954,-2.014,22.827,2.319
0.059,0.104,0.908,-4.150,21.240,4.944
0.071,0.133,0.896,-2.930,16.418,7.629
0.080,0.163,0.899,-0.671,11.597,9.277
0.095,0.188,0.933,0.122,6.531,9.705
0.100,0.221,0.972,1.831,2.808,9.521
0.096,0.251,1.010,2.136,0.610,8.362
0.099,0.243,1.048,0.244,-0.061,5.981
0.096,0.242,1.048,-1.465,0.916,4.028
0.093,0.215,1.068,-3.967,2.686,2.014
0.083,0.190,1.043,-5.676,4.883,0.488
0.075,0.178,1.011,-5.737,6.653,-0.244
0.068,0.153,0.999,-4.150,6.775,-1.526
0.068,0.133,0.988,-1.648,6.836,-2.197
0.068,0.111,0.970,0.793,7.385,-2.502
0.065,0.077,0.965,2.625,7.874,-2.319
0.066,0.068,0.958,2.563,8.057,-0.549
0.074,0.084,0.956,2.747,7.690,2.075
0.083,0.116,0.953,2.502,6.653,3.784
0.085,0.127,0.961,1.953,5.676,4.089
0.089,0.149,0.924,1.160,5.554,4.456
0.109,0.166,0.942,0.183,3.723,4.150
0.112,0.178,0.944,-0.793,3.357,3.601
0.110,0.176,0.928,-1.099,4.028,2.563
0.114,0.191,0.917,0.000,3.967,1.465
0.111,0.172,0.911,2.319,3.052,-0.427
0.109,0.140,0.916,3.357,1.892,-1.892
0.109,0.116,0.934,2.808,0.732,-1.953
0.111,0.109,0.958,1.648,0.488,-1.404
0.109,0.104,0.955,0.977,1.770,-0.610
0.107,0.110,0.939,0.183,2.991,0.305
0.106,0.119,0.947,-0.732,2.869,1.221
0.111,0.138,0.950,-0.793,2.869,2.136
0.117,0.144,0.953,-0.122,3.662,2.014
0.113,0.131,0.954,0.122,4.578,1.404
0.101,0.123,0.927,0.000,4.639,1.343
0.105,0.131,0.940,-0.122,1.892,1.953
0.112,0.152,0.957,0.427,-0.427,2.747
0.112,0.161,0.976,0.610,-1.038,2.319
0.111,0.165,0.980,1.526,-0.549,1.099
0.111,0.154,0.981,2.747,0.305,-0.305
0.111,0.149,0.976,2.075,1.160,-1.160
0.115,0.140,0.974,0.977,1.587,-1.770
0.111,0.130,0.973,0.305,2.075,-2.441
0.094,0.097,0.957,-0.305,2.136,-2.991
0.089,0.081,0.973,-0.122,0.061,-2.502
0.087,0.094,0.990,0.061,-1.038,-1.038
0.088,0.100,0.998,0.549,-1.282,-0.366
0.090,0.119,0.998,1.160,-0.793,0.427
0.093,0.134,0.989,2.014,-0.122,0.610
0.093,0.106,0.991,1.770,0.488,-0.305
0.090,0.110,0.966,0.488,1.221,-0.061
0.094,0.114,0.963,0.061,0.916,0.488
0.094,0.109,0.977,-0.244,0.122,0.244
0.092,0.112,0.980,-0.549,0.610,0.671
0.091,0.114,0.973,0.427,1.526,0.854
0.086,0.126,0.954,1.648,1.953,1.221
0.087,0.110,0.964,2.869,0.854,0.977
0.094,0.112,0.978,3.540,-0.183,1.282
0.099,0.126,0.978,3.723,-0.061,2.075
0.100,0.136,0.984,3.113,0.610,2.319
0.097,0.152,0.979,2.808,1.892,2.014
0.098,0.156,0.975,3.418,2.869,1.282
0.096,0.138,0.998,3.113,2.869,0.183
0.099,0.134,1.010,2.563,3.723,-0.427
0.098,0.133,1.016,2.930,5.371,-0.549
0.100,0.133,1.021,3.418,7.141,-0.732
0.100,0.139,1.017,3.418,8.728,-0.793
0.094,0.126,1.005,2.991,9.949,-1.465
0.092,0.131,1.001,2.869,10.864,-1.709
0.096,0.140,1.009,2.686,11.292,-1.709
0.100,0.141,1.033,2.197,11.902,-2.502
0.104,0.148,1.070,1.465,13.611,-2.930
0.105,0.170,1.086,1.099,16.479,-3.479
0.105,0.156,1.095,1.831,18.921,-5.615
0.094,0.128,1.084,3.967,20.874,-7.812
0.093,0.098,1.071,6.165,22.400,-8.423
0.097,0.085,1.042,6.836,24.109,-7.202
0.104,0.093,1.043,6.836,24.780,-5.310
0.120,0.125,1.071,6.104,25.024,-4.028
0.131,0.139,1.105,6.348,26.550,-4.272
0.132,0.125,1.120,8.728,29.846,-5.798
0.125,0.110,1.082,11.230,34.668,-6.958
0.121,0.096,1.036,12.451,38.330,-6.958
0.123,0.094,1.015,11.475,38.879,-6.104
0.139,0.128,1.045,9.460,37.415,-4.883
0.159,0.169,1.089,7.263,37.598,-5.005
0.167,0.181,1.137,6.958,39.856,-7.629
0.166,0.157,1.136,8.362,44.800,-11.108
0.167,0.126,1.100,9.705,50.354,-13.245
0.162,0.111,1.054,11.169,53.528,-13.367
0.166,0.098,1.015,12.207,54.199,-12.695
0.184,0.116,1.026,13.550,52.307,-11.780
0.198,0.143,1.061,15.503,50.842,-11.597
0.214,0.152,1.119,17.944,51.636,-13.367
-1.556,-0.964,-0.253,112.183,-595.886,64.819
-1.946,-0.790,0.560,117.920,-666.382,89.294
-2.243,-0.502,1.656,99.304,-713.989,116.882
-2.336,-0.214,2.747,82.397,-720.398,126.892
-2.011,-0.108,3.978,32.104,-696.228,126.465
-1.450,0.235,4.000,-37.476,-615.234,138.794
-0.977,0.800,4.000,-68.848,-462.280,150.208
-0.713,1.153,4.000,-71.106,-285.889,141.907
-0.559,1.173,3.755,-53.284,-137.817,123.413
-0.449,1.156,2.599,-20.813,-48.950,91.064
-0.475,0.643,1.939,4.578,-29.236,17.212
-0.327,-0.054,1.995,8.057,-48.523,-32.593
-0.235,-0.250,1.979,16.968,-52.612,-28.198
-0.176,-0.245,1.765,25.940,-35.583,-15.259
-0.125,-0.208,1.634,24.292,-25.085,-8.057
-0.100,-0.156,1.514,20.691,-19.775,-3.357
-0.105,-0.068,1.403,16.357,-16.174,0.793
-0.089,-0.013,1.429,13.733,-19.287,3.052
-0.061,0.011,1.550,12.634,-21.973,2.625
-0.038,0.047,1.579,13.611,-13.367,1.831
-0.028,0.066,1.499,14.038,0.732,0.183
-0.035,0.086,1.363,9.766,14.648,-1.465
-0.054,0.114,1.238,0.671,24.231,-2.747
-0.061,0.110,1.104,-5.981,30.823,-5.310
-0.057,0.032,1.037,-11.780,31.982,-9.644
-0.044,-0.029,1.036,-15.015,28.564,-10.681
-0.027,-0.073,1.034,-11.780,25.696,-9.033
-0.002,-0.112,0.996,-5.127,24.475,-6.836
0.005,-0.084,0.950,0.244,22.888,-2.930
0.017,-0.044,0.907,3.113,20.508,0.427
0.031,-0.030,0.891,2.258,17.090,1.953
0.031,-0.013,0.937,-0.183,13.123,3.357
0.048,0.063,0.929,-3.784,12.573,4.883
0.054,0.071,0.952,-8.728,11.902,2.747
0.057,0.046,0.997,-11.719,10.925,-0.793
0.047,0.044,0.964,-11.353,14.526,-2.441
0.046,0.022,0.939,-10.376,17.151,-4.211
0.041,-0.010,0.948,-10.254,16.968,-6.042
0.035,-0.034,0.939,-9.155,17.761,-6.348
0.037,-0.043,0.911,-6.470,18.494,-5.188
0.042,-0.047,0.889,-3.784,18.066,-3.784
0.044,-0.047,0.864,-2.258,16.113,-2.441
0.049,-0.039,0.869,-2.380,12.756,-0.671
0.060,0.004,0.902,-3.113,9.094,1.831
0.066,0.036,0.917,-0.427,7.385,2.625
0.077,0.037,0.915,2.502,6.714,1.587
0.081,0.054,0.911,5.188,5.676,0.977
0.093,0.078,0.913,5.371,3.906,-0.366
0.083,0.068,0.947,4.150,2.319,-2.136
0.082,0.048,0.967,2.441,2.258,-3.296
0.078,0.040,0.965,2.991,2.930,-3.601
0.084,0.044,0.964,3.906,2.319,-4.333
0.086,0.032,0.975,7.263,2.258,-5.066
0.080,0.013,0.977,8.423,2.014,-5.615
0.074,-0.002,0.975,6.958,1.953,-5.432
0.071,-0.012,0.995,4.211,1.587,-4.700
0.068,-0.015,1.016,2.625,0.610,-3.906
0.075,-0.024,1.020,2.808,1.587,-3.479
0.049,-0.022,1.004,2.319,2.563,-2.808
0.052,-0.003,1.002,0.305,2.380,-1.892
0.063,0.011,1.014,0.793,1.770,-1.465
0.062,-0.006,1.038,0.916,1.404,-2.380
0.061,-0.030,1.039,1.465,2.319,-2.808
0.048,-0.052,1.029,1.892,2.991,-2.258
0.055,-0.038,1.024,1.404,3.479,-0.305
0.054,-0.023,1.025,1.648,3.540,1.282
0.060,-0.023,1.033,1.038,3.479,2.075
0.066,0.011,1.032,0.183,3.845,3.052
0.073,0.031,1.034,0.671,4.517,3.235
0.082,0.031,1.036,-0.305,5.066,2.136
0.085,0.045,1.008,-0.305,6.409,1.404
0.087,0.039,1.001,0.000,7.202,0.183
0.089,0.011,1.002,-0.977,7.141,-1.587
0.079,0.006,0.996,-1.770,7.935,-1.099
0.080,0.006,0.979,-1.099,7.996,-0.793
0.075,-0.012,0.988,-1.221,6.836,-1.099
0.075,0.010,0.989,-2.136,6.287,0.305
0.076,0.022,0.990,-1.160,5.737,0.732
0.084,0.038,0.992,1.831,5.981,0.427
0.086,0.013,1.000,4.456,6.165,-0.854
0.089,0.003,0.997,3.418,6.592,-1.526
0.092,0.022,0.991,2.197,7.812,-0.793
0.086,0.015,0.985,2.258,8.667,-0.854
0.086,0.020,0.986,0.854,8.606,-0.977
0.085,0.016,0.995,0.061,8.484,-1.160
0.087,0.008,0.988,-0.122,8.972,-1.282
0.091,0.019,0.984,0.183,9.338,-0.916
0.091,0.010,0.995,-0.244,9.155,-1.038
0.087,0.013,0.990,-0.305,9.888,-1.221
0.086,0.007,0.984,-0.427,10.071,-0.977
0.085,0.006,0.998,-0.732,9.277,-0.671
0.087,0.023,1.002,0.305,9.338,-0.183
0.088,0.026,1.000,0.854,9.949,-1.038
0.125,0.040,0.998,1.953,10.315,-1.831
0.051,0.020,1.054,7.812,6.226,-4.272
0.110,0.002,1.094,5.249,6.653,-5.920
0.093,0.035,1.035,4.822,15.625,-4.456
0.097,0.034,1.068,0.854,16.846,-4.395
0.115,0.012,1.078,0.000,18.799,-5.920
0.076,0.006,1.055,0.183,22.522,-6.714
0.098,-0.021,1.063,-2.686,23.926,-6.836
0.108,-0.010,1.097,-2.747,23.437,-6.287
0.120,0.043,1.087,-1.221,25.574,-5.249
0.079,0.026,1.052,5.798,24.963,-9.033
0.108,-0.048,1.103,6.042,23.071,-12.573
0.115,0.018,1.003,5.005,30.701,-7.935
0.107,0.013,1.020,4.211,29.907,-7.996
0.115,-0.048,1.068,2.075,27.954,-10.254
0.125,-0.016,1.005,5.432,29.236,-9.705
0.114,-0.027,1.103,7.446,26.611,-9.521
0.147,0.016,1.135,4.089,28.809,-8.362
0.134,0.035,1.133,8.545,33.752,-9.338
0.145,-0.004,1.131,10.986,37.170,-11.963
0.132,-0.038,1.104,13.672,40.710,-13.489
0.135,-0.077,1.069,13.000,43.579,-13.489
0.155,-0.079,1.043,10.803,44.678,-11.597
0.136,-0.064,1.057,8.911,43.457,-9.277
0.159,-0.063,1.085,7.019,43.335,-8.179
0.173,-0.077,1.098,9.583,45.776,-7.324
-2.425,-0.681,1.737,166.504,-755.798,86.853
-2.248,-0.872,2.916,136.047,-760.742,84.045
-1.812,-0.421,4.000,53.833,-719.910,116.821
-1.272,0.198,4.000,-30.640,-607.300,144.714
-0.841,0.808,4.000,-119.934,-443.481,147.888
-0.546,1.308,4.000,-182.678,-267.273,138.489
-0.464,1.459,3.508,-192.688,-124.878,106.628
-0.426,1.149,2.495,-155.396,-44.617,57.129
-0.486,0.516,2.111,-99.243,-41.809,7.812
-0.412,-0.086,2.139,-52.368,-65.918,-15.137
-0.281,-0.283,2.082,-18.372,-64.392,-5.798
-0.165,-0.186,1.756,-8.057,-40.955,9.766
-0.116,0.059,1.544,-15.686,-26.367,22.583
-0.091,0.236,1.551,-20.691,-29.053,28.015
-0.073,0.244,1.587,-12.756,-30.090,21.729
-0.051,0.214,1.591,0.854,-25.024,13.794
-0.051,0.255,1.610,9.949,-17.578,9.399
-0.041,0.255,1.527,9.216,-6.165,5.249
-0.012,0.257,1.515,-3.235,6.165,0.793
-0.029,0.290,1.416,-7.568,18.921,-0.366
-0.017,0.276,1.275,-6.104,28.992,-2.258
-0.030,0.238,1.125,-0.916,33.569,-4.211
-0.038,0.189,1.006,4.089,32.654,-4.700
-0.029,0.149,0.938,8.118,27.344,-4.028
-0.023,0.117,0.931,11.902,20.203,-2.686
-0.019,0.117,0.905,14.954,13.550,-1.465
0.018,0.137,0.891,18.433,9.521,-0.183
0.037,0.147,0.917,16.541,6.775,-0.061
0.030,0.145,0.975,10.315,5.371,-0.183
0.032,0.179,0.986,3.784,7.568,-0.122
0.042,0.232,0.952,-0.427,12.695,-0.671
0.047,0.249,0.928,-2.563,16.296,-3.418
0.028,0.217,0.915,-2.625,17.395,-8.301
0.030,0.166,0.896,-1.099,18.555,-12.573
0.026,0.147,0.871,-0.366,19.165,-13.000
0.007,0.117,0.844,0.061,17.273,-13.123
0.006,0.093,0.851,1.343,12.817,-12.451
0.004,0.076,0.839,3.845,8.728,-11.047
0.002,0.059,0.835,7.690,5.371,-8.667
0.006,0.035,0.880,8.179,1.160,-6.226
0.011,0.027,0.899,7.019,-0.854,-3.662
0.006,0.049,0.879,4.639,-0.854,-0.610
0.028,0.142,0.936,0.183,-2.563,2.808
0.047,0.144,0.979,-2.380,-2.625,1.221
0.040,0.154,0.971,-1.587,0.610,-1.038
0.043,0.161,0.966,-0.183,2.075,-1.831
0.044,0.150,0.994,-0.061,1.099,-3.296
0.044,0.132,0.998,1.160,1.831,-4.272
0.041,0.136,0.992,2.563,2.747,-4.944
0.035,0.119,0.997,4.272,2.930,-5.615
0.034,0.099,0.996,3.540,2.441,-6.348
0.023,0.087,1.005,3.296,1.038,-5.981
0.025,0.094,1.024,3.601,0.244,-4.639
0.032,0.108,1.014,3.296,0.488,-3.784
0.032,0.102,1.031,2.380,0.000,-3.479
0.034,0.116,1.059,0.305,-0.732,-3.296
0.035,0.125,1.061,1.953,0.977,-3.479
0.031,0.106,1.045,4.211,3.662,-4.517
0.036,0.090,1.037,2.869,5.432,-5.066
0.031,0.086,1.047,1.282,6.775,-4.700
0.028,0.064,1.051,0.427,8.118,-5.310
0.027,0.056,1.046,-0.183,10.071,-5.005
0.030,0.077,1.043,-1.343,11.475,-3.296
0.036,0.113,1.042,-1.953,12.085,-2.747
0.042,0.149,1.054,0.183,12.146,-3.174
0.041,0.137,1.069,4.028,12.634,-4.639
0.044,0.133,1.069,5.737,14.099,-5.981
0.043,0.126,1.042,6.348,16.479,-6.714
0.050,0.099,1.006,6.042,18.372,-7.507
0.058,0.099,1.018,5.432,17.700,-7.385
0.058,0.100,1.051,4.272,16.357,-6.958
0.061,0.090,1.056,5.005,18.066,-7.263
0.061,0.073,1.027,5.737,20.630,-7.385
0.062,0.076,1.003,3.540,22.217,-6.897
0.043,0.101,0.969,4.456,21.606,-6.714
0.064,0.095,1.012,3.601,17.578,-8.484
0.077,0.140,1.038,1.343,19.104,-7.874
0.071,0.145,1.031,1.953,22.583,-9.277
0.071,0.111,1.006,2.808,25.330,-11.963
0.076,0.091,1.001,3.052,25.513,-13.428
0.091,0.079,1.003,2.502,25.024,-12.817
0.105,0.088,1.012,4.089,25.513,-11.841
0.099,0.074,1.001,8.301,28.198,-12.024
0.101,0.063,0.996,10.315,30.457,-11.963
0.110,0.074,1.016,10.498,30.884,-11.047
0.117,0.076,1.043,11.230,30.579,-10.681
0.117,0.076,1.041,12.146,32.471,-10.864
0.130,0.091,1.035,13.000,36.072,-11.169
0.145,0.084,1.043,13.428,39.978,-12.512
0.147,0.065,1.065,11.353,44.250,-14.221
0.136,0.060,1.069,7.507,49.316,-15.259
0.101,0.063,1.047,6.165,54.993,-15.869
0.107,0.050,1.013,5.493,58.228,-16.663
0.104,0.021,1.071,6.714,59.021,-16.663
0.108,0.023,1.052,7.324,63.721,-14.832
0.132,0.038,0.991,7.935,70.923,-13.367
0.148,0.052,0.982,9.094,71.533,-13.672
0.162,0.060,0.998,11.475,68.542,-14.587
0.167,0.058,1.020,14.160,65.186,-17.029
0.152,0.037,1.012,19.653,63.416,-19.226
0.159,0.016,0.990,24.231,61.646,-20.264
0.169,0.014,0.962,28.442,58.655,-20.752
0.191,0.003,0.962,30.029,54.810,-21.729
0.199,-0.034,1.015,30.396,51.086,-22.888
0.199,-0.042,1.053,30.640,52.185,-22.339
0.168,-0.083,1.033,31.921,56.641,-23.315
0.167,-0.111,1.020,31.372,61.462,-22.888
0.181,-0.145,0.999,30.396,64.941,-20.447
0.193,-0.190,0.980,33.630,66.345,-18.005
0.194,-0.205,0.961,33.325,66.956,-14.038
0.230,-0.201,0.911,30.273,67.993,-9.033
0.241,-0.163,0.923,25.452,69.153,-3.784
0.258,-0.136,0.896,21.790,71.594,-0.183
0.275,-0.118,0.876,18.982,73.486,1.648
0.284,-0.084,0.878,14.832,75.012,3.357
0.290,-0.080,0.869,13.855,75.073,3.662
0.305,-0.113,0.857,14.954,74.768,2.563
0.304,-0.126,0.820,13.306,74.829,3.174
0.320,-0.108,0.773,14.160,72.144,4.333
-0.617,-0.421,-1.967,34.607,-440.918,59.082
-1.080,-0.498,-1.847,58.777,-530.273,61.279
-1.599,-0.727,-1.630,90.149,-628.784,62.378
-2.236,-0.495,-1.161,99.854,-728.088,98.083
-2.906,-0.383,-0.507,112.244,-815.552,132.080
-3.547,-0.333,0.543,112.549,-896.790,141.541
-3.999,-0.369,1.881,126.709,-955.383,139.038
-3.897,-0.634,3.391,167.908,-976.929,118.713
-3.234,-0.811,4.000,147.217,-969.971,101.501
-1.905,-0.594,4.000,72.510,-875.610,120.117
-0.879,0.403,4.000,-26.550,-634.705,161.621
-0.386,1.385,4.000,-106.262,-221.558,166.687
-0.470,1.598,3.218,-175.537,101.746,108.276
-0.730,0.777,1.301,-216.919,167.297,17.517
-0.689,-0.320,1.452,-215.637,53.284,-36.926
-0.564,-0.753,2.030,-154.724,-46.997,-32.288
-0.468,-0.870,2.097,-66.711,-60.974,-19.531
-0.377,-0.906,1.975,-21.118,-46.631,-6.775
-0.279,-0.793,1.881,-11.597,-38.208,14.221
-0.168,-0.457,1.947,-22.766,-34.424,38.574
-0.013,0.000,1.965,-36.499,-20.081,53.284
0.113,0.448,1.751,-32.471,3.296,53.406
0.164,0.690,1.496,-22.949,23.499,39.124
0.141,0.714,1.247,-17.578,36.499,17.029
0.049,0.554,1.087,-12.878,40.649,-4.089
0.030,0.310,1.094,-12.329,35.767,-18.372
0.008,0.133,1.127,-6.470,33.020,-22.461
0.010,0.084,1.005,2.197,38.452,-18.311
0.029,0.056,0.890,7.019,41.565,-13.855
0.043,0.106,0.820,6.775,41.748,-9.583
0.048,0.142,0.753,5.066,40.649,-9.460
0.032,0.093,0.779,6.775,35.767,-11.169
0.033,0.047,0.844,7.324,29.297,-11.353
0.045,0.067,0.885,9.644,27.527,-9.155
0.048,0.051,0.885,11.597,28.503,-8.118
0.045,0.062,0.838,13.733,29.541,-6.958
0.048,0.028,0.740,12.085,30.029,-6.714
0.072,0.035,0.734,7.629,24.841,-4.700
0.081,0.058,0.777,3.845,16.968,-2.808
0.066,0.023,0.767,5.798,12.512,-2.869
0.063,-0.018,0.810,6.836,6.653,-2.808
0.072,0.005,0.877,5.859,1.343,-0.671
0.075,-0.000,0.957,5.005,-1.770,0.671
0.072,0.005,1.005,5.615,-2.869,0.732
0.066,0.000,1.016,6.042,-1.221,0.977
0.062,0.014,1.006,4.883,0.549,0.916
0.056,0.021,0.998,5.066,1.465,0.854
0.062,0.015,0.992,2.625,0.244,-0.244
0.061,0.038,1.022,-1.831,-1.770,0.488
0.066,0.042,1.047,-3.906,-2.686,0.671
0.067,0.042,1.069,-2.441,-2.502,0.793
0.069,0.038,1.090,0.793,-2.319,0.549
0.073,0.045,1.077,3.052,0.183,0.488
0.075,0.053,1.052,2.808,1.953,0.671
0.086,0.060,1.048,1.343,2.563,0.854
0.095,0.070,1.046,-0.305,3.235,1.038
0.106,0.098,1.035,-1.038,5.310,1.099
0.104,0.094,1.025,-0.488,7.446,-0.610
0.102,0.052,1.023,-1.465,9.583,-2.563
0.091,0.044,0.986,-2.197,11.475,-2.930
0.091,0.036,0.965,0.000,11.963,-3.235
0.077,0.023,0.935,4.150,10.071,-4.272
0.078,0.025,0.915,7.812,8.545,-4.395
0.075,0.006,0.932,7.996,6.287,-4.089
0.067,-0.018,0.939,7.019,4.395,-3.845
0.070,-0.002,0.947,4.517,2.869,-2.808
0.071,0.010,0.956,1.953,2.258,-1.099
0.071,-0.002,0.936,0.732,2.197,-0.610
0.071,-0.003,0.946,0.061,0.793,-0.061
0.084,0.027,0.972,-0.122,-0.427,1.160
0.086,0.022,0.983,1.160,-0.061,0.977
0.083,-0.006,0.968,3.174,1.099,0.305
0.083,-0.009,0.950,2.319,1.404,0.916
0.086,0.017,0.940,1.709,1.587,2.319
0.083,0.018,0.965,0.854,0.488,2.869
0.085,0.026,0.964,0.671,0.793,3.174
0.086,0.039,0.962,0.793,0.732,3.357
0.080,0.054,1.006,-0.732,-0.916,3.113
0.081,0.043,1.016,0.671,-0.183,2.197
0.090,0.054,1.003,1.831,1.587,1.770
0.089,0.044,1.005,0.427,1.465,0.488
0.093,0.036,1.007,-0.427,1.892,-0.122
0.089,0.027,0.996,-0.244,2.319,0.061
0.095,0.026,1.008,0.549,1.282,-0.122
0.096,0.034,1.013,0.977,1.831,0.549
0.094,0.031,1.003,2.502,2.625,0.549
0.102,0.062,1.013,2.563,2.502,0.610
0.090,0.072,1.013,4.028,3.662,0.061
0.086,0.058,1.000,6.470,5.066,-2.014
0.085,0.046,1.004,6.897,5.188,-2.808
0.082,0.014,1.008,6.165,5.676,-3.113
0.084,-0.003,1.001,5.432,5.859,-2.991
0.087,-0.001,0.988,4.700,6.348,-2.502
0.083,-0.006,0.974,3.540,6.531,-2.136
0.083,-0.012,0.945,2.319,6.897,-1.770
0.087,-0.004,0.940,0.610,5.859,-1.038
0.087,-0.008,0.956,0.488,3.784,-0.183
0.089,0.001,0.961,0.427,3.113,0.854
0.096,0.028,0.959,0.671,2.930,1.770
0.095,0.030,0.986,1.404,2.075,1.404
0.098,0.030,0.989,0.977,2.747,0.488
0.097,0.042,0.983,-0.549,3.479,-0.183
0.100,0.038,0.989,-0.916,4.150,-0.732
0.101,0.023,0.990,-0.366,4.333,-1.831
0.100,0.002,0.968,1.282,5.127,-2.563
0.087,-0.015,0.932,2.808,5.249,-2.441
0.084,-0.033,0.953,2.869,2.380,-1.648
0.089,-0.032,0.993,1.343,-0.366,-0.366
0.091,-0.014,0.990,-0.122,0.488,1.648
0.092,0.005,0.983,-0.488,1.221,3.235
0.097,0.016,1.000,-0.916,0.977,3.845
0.100,0.032,0.991,-0.366,1.282,3.845
0.106,0.055,0.987,0.916,1.770,3.235
0.105,0.045,0.992,1.587,1.526,1.648
0.102,0.036,0.996,0.916,2.380,0.366
0.101,0.009,1.009,0.488,3.174,-0.488
0.102,-0.001,1.014,-0.793,4.211,-0.183
0.101,0.001,0.991,-0.977,5.432,0.244
0.109,0.019,0.978,0.244,5.249,0.671
-2.599,-0.849,1.759,172.119,-789.795,-14.954
-2.611,-0.657,2.858,128.235,-806.824,-4.333
-2.138,-0.485,3.997,78.796,-792.969,-5.310
-1.563,-0.454,4.000,19.958,-728.882,-15.381
-1.004,-0.733,4.000,-51.697,-564.575,-16.479
-0.575,-0.449,4.000,-110.413,-314.941,31.067
-0.584,0.191,4.000,-122.498,-86.243,93.140
-0.624,0.728,2.586,-95.215,43.091,90.332
-0.424,0.963,1.628,-114.014,72.632,62.256
-0.370,0.201,1.735,-115.723,22.644,-5.981
-0.359,-0.338,1.851,-74.341,0.488,-41.138
-0.175,-0.496,1.488,-20.386,9.033,-28.381
-0.081,-0.283,1.483,3.784,0.305,-0.732
-0.055,-0.105,1.472,9.033,-11.963,12.146
-0.001,-0.006,1.495,12.817,-17.334,15.015
0.003,0.048,1.654,13.733,-20.081,12.390
0.018,0.045,1.635,14.648,-11.902,7.141
0.079,0.088,1.653,5.859,1.099,5.127
0.053,0.141,1.537,4.883,17.700,1.770
0.036,0.186,1.234,5.859,39.307,-2.258
0.033,0.182,1.058,-0.122,49.133,-6.958
0.031,0.147,0.981,-5.859,50.964,-12.634
0.030,0.061,0.896,-7.690,52.673,-17.761
0.017,-0.049,0.787,-6.592,52.917,-19.958
0.025,-0.078,0.729,-3.967,46.570,-16.052
0.041,-0.084,0.760,-1.587,35.461,-10.803
0.051,-0.066,0.775,2.930,28.259,-6.042
0.064,-0.032,0.750,9.644,23.682,-2.747
0.083,-0.013,0.779,14.832,18.921,-0.671
0.091,-0.019,0.832,14.526,15.381,0.305
0.084,0.010,0.823,10.803,15.869,2.197
0.091,0.079,0.807,7.629,15.930,3.235
0.080,0.111,0.790,4.150,15.015,1.099
0.071,0.078,0.790,3.845,12.573,-2.441
0.054,0.018,0.757,7.385,7.751,-5.737
0.049,-0.026,0.821,11.169,-0.305,-7.690
0.043,-0.070,0.856,14.343,-4.211,-7.996
0.030,-0.098,0.846,12.634,-4.883,-7.019
0.025,-0.125,0.881,10.681,-7.080,-4.944
0.024,-0.141,0.906,9.399,-8.850,-2.869
0.024,-0.100,0.930,6.226,-10.498,0.244
0.029,-0.053,0.956,4.700,-12.634,2.441
0.030,-0.052,0.989,3.906,-13.794,2.075
0.036,-0.031,1.024,2.930,-13.123,2.136
0.038,-0.023,1.057,4.456,-11.414,2.319
0.034,-0.036,1.085,4.578,-9.094,1.404
0.040,-0.036,1.107,6.470,-6.897,1.160
0.043,-0.044,1.119,9.399,-5.432,0.793
0.046,-0.044,1.135,9.460,-4.211,0.549
0.052,-0.033,1.107,9.949,-1.160,1.221
0.059,-0.008,1.106,7.202,0.916,1.892
0.061,0.007,1.109,3.723,2.319,1.465
0.062,0.004,1.086,1.648,4.639,0.427
0.058,-0.000,1.070,0.427,5.310,-0.916
0.059,-0.012,1.078,-0.854,5.249,-2.197
0.060,-0.015,1.074,-2.258,6.958,-2.319
0.054,-0.027,1.049,-1.099,8.362,-2.686
0.058,-0.035,1.032,2.563,9.216,-2.930
0.056,-0.041,1.000,3.357,10.193,-3.113
0.052,-0.029,0.977,4.150,10.315,-2.563
0.063,-0.033,0.999,3.967,7.446,-2.747
0.063,-0.029,0.977,6.897,7.690,-3.052
0.061,-0.053,0.953,6.775,8.240,-3.540
0.065,-0.060,0.941,6.042,7.263,-3.357
0.069,-0.053,0.959,4.150,5.432,-2.869
0.071,-0.060,0.968,2.869,5.249,-2.747
0.075,-0.039,0.956,2.686,6.348,-1.831
0.073,-0.041,0.964,2.869,6.592,-1.770
0.070,-0.048,0.978,0.610,6.714,-2.014
0.069,-0.058,0.967,-0.244,7.568,-2.258
0.061,-0.060,0.942,1.953,8.240,-1.892
0.068,-0.053,0.965,3.052,7.141,-1.526
0.063,-0.062,0.959,3.906,7.812,-1.282
0.062,-0.054,0.939,4.578,7.080,-1.465
0.068,-0.057,0.978,4.150,4.761,-1.587
0.072,-0.067,0.982,3.601,4.272,-1.953
0.066,-0.084,0.971,4.639,4.639,-1.831
0.063,-0.105,0.964,4.089,4.578,-1.404
0.070,-0.103,0.967,2.625,3.967,0.183
0.072,-0.078,0.963,2.258,3.113,1.648
0.072,-0.071,0.953,3.174,2.502,2.380
0.076,-0.068,0.973,2.136,1.038,2.991
0.078,-0.038,0.980,0.488,0.732,3.540
0.078,-0.015,0.988,0.427,0.610,3.113
0.076,-0.048,0.998,-0.427,0.610,0.732
0.073,-0.062,1.005,-0.610,0.427,-0.366
0.068,-0.066,1.001,0.061,1.221,0.000
0.068,-0.072,0.993,0.854,2.136,0.305
0.066,-0.088,0.992,2.991,2.014,-0.122
0.078,-0.074,0.996,5.371,1.953,-0.122
0.077,-0.066,1.001,5.066,2.869,0.366
0.081,-0.071,1.002,3.906,4.028,0.244
0.084,-0.078,0.979,3.235,5.066,0.122
0.074,-0.078,0.973,-0.488,5.249,0.977
0.077,-0.081,0.976,-3.540,3.662,1.465
0.082,-0.057,0.999,-3.662,2.075,2.563
0.087,-0.028,1.012,-2.441,2.014,3.113
0.084,-0.047,1.016,0.061,3.052,1.465
0.078,-0.073,0.984,2.258,4.639,-0.061
0.084,-0.071,0.985,2.014,4.150,0.488
0.083,-0.075,0.992,0.488,3.723,0.916
0.088,-0.069,0.982,0.549,4.883,1.221
0.090,-0.056,0.983,-0.854,5.676,1.526
0.089,-0.059,0.979,-0.732,5.737,1.099
0.093,-0.063,0.980,-0.977,5.737,1.099
0.094,-0.057,0.977,-1.160,5.859,1.282
0.085,-0.040,0.966,0.244,5.981,1.221
0.086,-0.056,0.961,1.953,5.920,0.427
0.090,-0.073,0.980,2.197,4.517,-0.183
0.096,-0.056,0.988,1.099,3.967,0.549
0.099,-0.049,0.993,0.732,4.395,0.793
0.094,-0.061,0.974,-0.549,4.883,0.305
0.091,-0.067,0.981,-1.404,3.479,0.549
0.098,-0.043,0.994,-0.244,2.686,1.221
0.093,-0.052,1.001,0.488,2.869,0.427
0.094,-0.053,0.994,0.793,3.967,0.366
0.090,-0.062,0.989,0.549,4.761,0.671
0.090,-0.062,0.981,-1.648,4.456,1.343
0.084,-0.056,0.982,-3.357,3.479,2.197
-1.710,-0.161,1.783,23.560,-626.160,67.810
-1.654,-0.162,2.254,4.333,-606.262,81.787
-1.520,0.005,2.955,3.967,-590.698,94.299
-1.276,0.133,3.788,10.193,-559.570,99.426
-0.959,0.156,4.000,17.700,-475.708,92.651
-0.696,0.265,3.979,19.836,-350.647,83.740
-0.519,0.436,3.304,13.855,-229.492,73.853
-0.420,0.491,2.630,-1.038,-144.836,54.749
-0.390,0.475,2.122,-19.226,-96.741,32.776
-0.369,0.372,1.858,-34.912,-75.928,12.268
-0.370,0.140,1.854,-46.509,-71.350,-7.141
-0.379,-0.047,1.883,-47.058,-65.735,-17.395
-0.362,-0.138,1.804,-41.077,-52.734,-17.639
-0.326,-0.178,1.711,-34.851,-41.138,-13.062
-0.292,-0.115,1.618,-27.588,-33.936,-5.737
-0.258,-0.017,1.579,-19.592,-30.457,0.183
-0.218,0.049,1.631,-14.404,-28.931,1.526
-0.195,0.094,1.714,-9.399,-24.597,0.122
-0.197,0.087,1.716,-1.953,-13.000,-2.930
-0.193,0.066,1.614,2.136,1.892,-6.042
-0.175,0.078,1.478,1.099,14.221,-6.653
-0.150,0.102,1.384,-5.005,20.813,-5.615
-0.136,0.122,1.332,-11.841,24.048,-6.165
-0.120,0.100,1.284,-15.381,26.917,-8.118
-0.116,0.050,1.234,-15.808,29.907,-9.521
-0.106,0.025,1.168,-11.292,32.471,-8.667
-0.103,0.002,1.054,-3.540,33.936,-7.080
-0.092,0.012,0.976,1.953,31.250,-4.761
-0.085,0.012,0.943,8.789,25.757,-3.113
-0.076,0.022,0.934,12.695,20.691,-2.502
-0.068,0.021,0.937,14.160,16.785,-2.136
-0.056,0.028,0.945,13.062,15.137,-1.587
-0.046,0.045,0.946,9.033,15.320,-0.977
-0.042,0.045,0.949,4.578,16.968,-1.404
-0.042,0.041,0.940,0.916,19.226,-2.625
-0.049,0.027,0.926,-1.465,20.630,-3.662
-0.055,0.013,0.884,-0.671,22.217,-4.761
-0.059,-0.022,0.841,0.732,22.095,-5.371
-0.055,-0.030,0.813,1.709,18.677,-4.456
-0.042,-0.017,0.820,3.174,13.733,-2.808
-0.038,-0.005,0.848,4.883,8.850,-1.221
-0.027,0.008,0.863,5.676,5.981,0.305
-0.016,0.027,0.884,4.333,4.089,0.977
-0.022,0.019,0.885,2.319,3.479,0.305
-0.025,0.001,0.876,0.366,2.441,0.061
-0.014,0.031,0.912,-0.732,-0.122,1.343
-0.014,0.031,0.941,0.732,-1.587,1.099
-0.018,0.012,0.940,3.357,-1.160,-0.183
-0.021,0.017,0.943,3.174,-2.441,0.183
-0.019,0.029,0.982,2.136,-4.456,0.854
-0.020,0.018,1.004,0.793,-4.150,0.916
-0.016,0.022,1.008,-0.854,-1.892,1.099
-0.016,0.037,1.008,-2.869,-0.549,1.526
-0.024,0.043,1.004,-3.784,0.061,0.977
-0.031,0.027,1.009,-2.319,0.061,-0.061
-0.034,0.018,1.018,-0.183,0.183,-0.122
-0.037,0.017,1.027,0.549,-0.305,-0.183
-0.041,0.011,1.024,1.099,-0.122,-0.061
-0.041,0.004,1.025,0.977,0.366,1.099
-0.039,0.024,1.038,0.000,0.122,2.319
-0.027,0.045,1.030,2.258,0.977,2.686
-0.027,0.038,1.034,3.723,1.770,1.892
-0.029,0.040,1.033,2.808,2.930,1.831
-0.027,0.053,1.021,1.953,3.906,1.831
-0.027,0.050,1.021,2.136,3.479,1.343
-0.022,0.047,1.029,1.709,2.930,0.732
-0.021,0.045,1.023,1.221,3.784,0.366
-0.024,0.033,1.012,0.183,4.456,0.122
-0.019,0.042,1.002,-0.427,5.310,0.610
-0.016,0.038,0.995,1.465,5.859,0.427
-0.010,0.037,0.983,3.357,6.348,0.366
-0.019,0.039,0.977,4.639,5.981,0.427
-0.022,0.035,0.963,4.883,5.249,-0.244
-0.018,0.022,0.968,4.700,4.150,-0.244
-0.020,0.028,0.970,3.418,3.357,0.427
-0.019,0.037,0.965,2.136,3.479,0.793
-0.017,0.043,0.966,1.465,3.357,0.488
-0.014,0.029,0.964,2.075,3.418,-0.244
-0.016,0.016,0.962,2.258,2.930,-1.038
-0.017,0.006,0.973,2.930,1.831,-0.671
-0.020,-0.001,0.986,3.479,0.793,-0.366
-0.016,0.010,0.970,2.869,1.892,0.793
-0.010,0.024,0.965,0.671,2.136,1.221
-0.010,0.046,0.976,-0.671,1.648,1.526
-0.013,0.047,0.982,0.305,2.136,1.099
-0.016,0.030,0.973,2.319,2.197,0.061
-0.015,0.022,0.968,3.357,1.526,-0.183
-0.017,0.018,0.981,3.540,0.244,-0.427
-0.013,0.020,0.984,2.441,0.122,-0.427
-0.012,0.017,0.980,2.319,0.793,0.244
-0.012,0.016,0.991,0.916,0.854,0.183
-0.016,0.016,0.995,-1.038,1.038,0.061
-0.022,0.013,0.991,-1.526,1.343,0.000
-0.025,0.022,0.987,-0.610,1.770,0.305
-0.024,0.005,0.990,1.526,1.709,0.000
-0.025,-0.002,1.004,1.343,0.793,-0.061
-0.027,0.006,1.001,1.099,0.977,0.732
-0.026,-0.002,1.000,2.319,1.587,1.282
-0.026,-0.004,0.993,2.869,1.404,2.075
-0.020,0.014,0.985,3.479,0.916,2.930
-0.016,0.021,0.993,3.113,0.427,2.808
-0.013,0.022,0.999,1.038,0.671,2.563
-0.012,0.033,0.997,0.000,1.404,2.686
-0.010,0.033,0.988,1.160,1.831,1.892
-0.012,0.013,0.976,2.930,2.014,0.793
-0.016,0.011,0.984,4.089,1.404,0.854
-0.013,0.008,0.986,4.761,1.221,1.160
-0.014,0.002,0.988,3.540,0.977,1.343
-0.019,0.009,0.990,0.977,0.610,1.648
-0.020,0.018,0.989,-0.427,0.732,2.136
-0.017,0.025,0.990,-0.854,0.671,2.258
-0.018,0.021,0.979,0.061,0.854,1.831
-0.016,0.019,0.980,0.977,0.793,1.160
-0.011,0.009,0.991,1.892,1.160,0.977
-0.007,0.005,0.987,0.549,1.709,1.038
-0.011,0.015,0.983,-1.282,1.709,1.648
-0.009,0.016,0.990,-1.099,0.977,1.404
-0.013,0.014,0.989,1.343,1.160,1.404
-0.014,0.014,0.979,2.014,1.526,1.587
-0.763,-0.120,2.574,-60.974,-391.174,41.443
-0.649,0.069,2.770,-108.398,-324.524,49.561
-0.631,0.219,2.406,-127.197,-248.962,52.124
-0.744,0.196,2.061,-123.840,-203.552,48.706
-0.805,0.149,1.750,-107.178,-188.293,51.575
-0.743,0.134,1.703,-78.186,-191.650,57.495
-0.713,0.102,1.852,-41.016,-209.167,62.500
-0.645,0.003,1.951,-3.784,-213.196,64.453
-0.572,-0.031,1.958,20.203,-202.881,70.313
-0.498,0.093,1.900,29.114,-182.983,77.942
-0.461,0.215,1.806,28.870,-161.011,79.041
-0.360,0.290,1.701,25.696,-139.648,72.327
-0.340,0.408,1.562,21.912,-120.483,64.331
-0.316,0.357,1.476,18.127,-106.018,49.927
-0.297,0.276,1.401,14.465,-94.788,35.278
-0.284,0.211,1.342,9.705,-84.778,25.513
-0.150,0.120,1.303,7.019,-76.843,18.738
-0.401,0.244,1.203,11.902,-68.665,17.822
-0.454,0.019,1.068,15.564,-62.439,10.193
-0.357,0.049,1.259,18.005,-67.688,11.292
-0.344,0.117,1.259,19.714,-61.096,14.954
-0.328,0.036,1.208,24.170,-49.438,10.010
-0.312,0.070,1.220,24.414,-43.152,9.399
-0.308,0.127,1.191,22.095,-35.645,8.545
-0.312,0.127,1.216,19.104,-28.320,3.357
-0.346,0.110,1.209,13.611,-19.775,-2.319
-0.368,0.056,1.195,7.996,-11.536,-7.019
-0.380,-0.002,1.211,3.967,-5.554,-10.376
-0.387,-0.051,1.185,1.831,0.183,-11.414
-0.385,-0.067,1.132,0.061,5.249,-10.620
-0.382,-0.060,1.052,-1.221,9.277,-8.728
-0.386,-0.078,1.001,-3.113,10.803,-7.202
-0.367,-0.097,1.003,-5.676,9.277,-5.676
-0.337,-0.069,0.998,-8.789,9.033,-2.563
-0.317,-0.049,0.996,-12.573,9.949,-0.061
-0.298,-0.015,0.977,-13.184,11.597,2.014
-0.280,0.015,0.966,-13.367,13.367,3.662
-0.247,0.041,0.922,-12.817,16.235,4.211
-0.245,0.057,0.868,-11.536,18.188,3.845
-0.235,0.071,0.841,-12.268,16.602,4.578
-0.221,0.095,0.837,-10.620,12.573,5.493
-0.214,0.111,0.847,-7.202,8.240,5.676
-0.210,0.123,0.859,-2.258,4.639,4.822
-0.211,0.123,0.850,2.441,2.563,3.052
-0.216,0.109,0.875,3.235,0.610,0.916
-0.215,0.098,0.901,3.479,-0.610,-0.427
-0.236,0.070,0.881,4.517,-0.183,-1.709
-0.244,0.037,0.866,4.700,-0.610,-2.502
-0.240,0.020,0.886,4.028,-2.869,-1.831
-0.252,0.024,0.908,2.808,-4.578,-0.854
-0.240,0.035,0.929,1.221,-5.432,-0.732
-0.245,0.041,0.937,0.732,-4.944,-1.221
-0.262,0.021,0.925,0.244,-3.845,-2.258
-0.269,0.010,0.946,-0.488,-4.639,-2.319
-0.271,0.024,0.992,-0.061,-6.104,-1.587
-0.268,0.016,0.993,1.831,-5.493,-1.648
-0.275,0.019,0.977,2.869,-4.395,-1.465
-0.279,0.005,0.990,2.258,-4.883,-1.648
-0.277,0.001,1.004,1.282,-4.517,-1.587
-0.276,0.005,1.013,0.488,-3.357,-1.465
-0.283,0.005,1.009,0.305,-1.709,-1.709
-0.283,0.000,0.990,0.977,-0.488,-1.831
-0.286,-0.005,0.976,1.831,-0.977,-1.526
-0.290,-0.036,1.013,0.000,-2.686,-1.465
-0.295,-0.036,1.019,-1.221,-2.441,-0.122
-0.284,-0.016,1.005,-1.160,-0.610,1.465
-0.280,0.006,1.003,-1.099,0.000,2.441
-0.277,0.014,0.996,-0.549,0.854,2.441
-0.276,0.019,0.996,0.671,1.404,2.197
-0.271,0.019,0.991,1.282,2.075,1.770
-0.277,0.008,0.983,2.502,2.441,1.404
-0.275,-0.002,0.962,3.418,2.747,1.343
-0.272,-0.013,0.950,2.991,2.380,1.404
-0.264,-0.011,0.950,1.648,1.587,2.136
-0.262,-0.013,0.962,0.183,0.671,2.808
-0.258,0.001,0.975,-1.343,0.244,3.479
